DeviceTag: Xsens DOT0,FirmwareVersion: 2.2.1,AppVersion: 2022.2.0,SyncStatus: Unknown (Synced/Un-synced),OutputRate: 60,FilterProfile: Unknown,Measurement Mode: Sensor fusion Mode - Extended (Quaternion),StartTime: 2023-06-12 11:03:02.801,© Movella Technologies B.V. 2005-2023
SampleTimeFine,Quat_W,Quat_X,Quat_Y,Quat_Z,FreeAcc_X,FreeAcc_Y,FreeAcc_Z,Status
22957912,0.4842,0.5032,-0.5026,0.5097,-0.0020,-0.0138,-0.0633,0
22958079,0.4843,0.5031,-0.5026,0.5096,-0.0003,0.0104,-0.0693,0
22958245,0.4840,0.5034,-0.5025,0.5097,-0.0138,-0.0187,-0.0611,0
22958412,0.4842,0.5033,-0.5025,0.5096,-0.0061,-0.0115,-0.0552,0
22958579,0.4842,0.5034,-0.5025,0.5096,0.0006,-0.0115,-0.0595,0
22958745,0.4841,0.5035,-0.5024,0.5096,-0.0087,0.0091,-0.0541,0
22958912,0.4841,0.5035,-0.5025,0.5095,0.0053,-0.0214,-0.0566,0
22959079,0.4843,0.5034,-0.5026,0.5093,0.0057,0.0048,-0.0611,0
22959245,0.4844,0.5033,-0.5028,0.5091,0.0007,-0.0104,-0.0680,0
22959412,0.4845,0.5033,-0.5030,0.5089,0.0060,-0.0204,-0.0658,0
22959579,0.4845,0.5033,-0.5031,0.5089,-0.0037,-0.0272,-0.0569,0
22959745,0.4844,0.5033,-0.5031,0.5088,0.0076,-0.0266,-0.0593,0
22959912,0.4845,0.5033,-0.5032,0.5087,0.0094,-0.0326,-0.0470,0
22960079,0.4844,0.5033,-0.5032,0.5087,0.0082,-0.0056,-0.0513,0
22960245,0.4844,0.5034,-0.5032,0.5087,-0.0027,-0.0347,-0.0582,0
22960412,0.4843,0.5035,-0.5032,0.5087,0.0002,-0.0214,-0.0549,0
22960579,0.4843,0.5035,-0.5032,0.5086,0.0134,-0.0146,-0.0586,0
22960745,0.4844,0.5034,-0.5034,0.5085,0.0018,-0.0331,-0.0527,0
22960912,0.4843,0.5035,-0.5034,0.5085,0.0073,-0.0266,-0.0596,0
22961079,0.4843,0.5035,-0.5034,0.5084,0.0069,-0.0299,-0.0639,0
22961245,0.4844,0.5034,-0.5036,0.5082,0.0099,-0.0329,-0.0522,0
22961412,0.4844,0.5034,-0.5037,0.5081,0.0054,-0.0331,-0.0599,0
22961579,0.4846,0.5032,-0.5040,0.5079,0.0076,-0.0519,-0.0634,0
22961745,0.4845,0.5033,-0.5039,0.5079,0.0130,-0.0350,-0.0555,0
22961912,0.4845,0.5033,-0.5040,0.5078,-0.0077,-0.0486,-0.0562,0
22962079,0.4845,0.5033,-0.5041,0.5078,0.0036,-0.0553,-0.0562,0
22962245,0.4849,0.5030,-0.5045,0.5073,0.0143,-0.0467,-0.0716,0
22962412,0.4850,0.5028,-0.5047,0.5071,0.0126,-0.0496,-0.0605,0
22962579,0.4850,0.5029,-0.5048,0.5071,0.0132,-0.0544,-0.0539,0
22962745,0.4849,0.5029,-0.5048,0.5070,-0.0054,-0.0344,-0.0721,0
22962912,0.4850,0.5028,-0.5049,0.5069,0.0110,-0.0553,-0.0449,0
22963079,0.4850,0.5029,-0.5049,0.5069,0.0002,-0.0592,-0.0598,0
22963245,0.4850,0.5029,-0.5050,0.5068,0.0050,-0.0574,-0.0584,0
22963412,0.4848,0.5031,-0.5049,0.5069,0.0145,-0.0452,-0.0614,0
22963579,0.4848,0.5031,-0.5049,0.5068,0.0093,-0.0666,-0.0562,0
22963745,0.4850,0.5029,-0.5052,0.5066,0.0024,-0.0518,-0.0573,0
22963912,0.4849,0.5030,-0.5052,0.5066,0.0079,-0.0537,-0.0466,0
22964079,0.4849,0.5031,-0.5052,0.5066,-0.0038,-0.0454,-0.0425,0
22964245,0.4847,0.5032,-0.5051,0.5067,0.0091,-0.0576,-0.0683,0
22964412,0.4847,0.5032,-0.5052,0.5066,0.0059,-0.0499,-0.0629,0
22964579,0.4847,0.5032,-0.5053,0.5065,-0.0019,-0.0715,-0.0469,0
22964745,0.4847,0.5032,-0.5054,0.5064,0.0031,-0.0678,-0.0549,0
22964912,0.4847,0.5032,-0.5054,0.5063,0.0171,-0.0731,-0.0519,0
22965079,0.4847,0.5033,-0.5054,0.5063,0.0036,-0.0527,-0.0563,0
22965245,0.4847,0.5032,-0.5055,0.5062,0.0076,-0.0911,-0.0451,0
22965412,0.4848,0.5032,-0.5057,0.5061,-0.0020,-0.0630,-0.0505,0
22965579,0.4847,0.5032,-0.5057,0.5060,0.0161,-0.0754,-0.0707,0
22965745,0.4848,0.5032,-0.5058,0.5059,0.0100,-0.0584,-0.0529,0
22965912,0.4846,0.5034,-0.5057,0.5060,0.0148,-0.0593,-0.0619,0
22966079,0.4846,0.5034,-0.5058,0.5059,0.0166,-0.0654,-0.0524,0
22966245,0.4847,0.5033,-0.5059,0.5058,0.0200,-0.1073,-0.0583,0
22966412,0.4846,0.5034,-0.5058,0.5058,0.0096,-0.0720,-0.0647,0
22966579,0.4847,0.5034,-0.5060,0.5057,0.0077,-0.0876,-0.0675,0
22966745,0.4846,0.5034,-0.5060,0.5056,0.0104,-0.0744,-0.0493,0
22966912,0.4847,0.5033,-0.5062,0.5055,0.0252,-0.0972,-0.0672,0
22967079,0.4848,0.5033,-0.5063,0.5053,0.0241,-0.0674,-0.0482,0
22967245,0.4849,0.5032,-0.5064,0.5052,0.0217,-0.1059,-0.0589,0
22967412,0.4848,0.5032,-0.5065,0.5052,0.0148,-0.0980,-0.0594,0
22967579,0.4850,0.5031,-0.5066,0.5050,0.0191,-0.0908,-0.0689,0
22967745,0.4850,0.5031,-0.5068,0.5049,0.0150,-0.0781,-0.0431,0
22967912,0.4850,0.5031,-0.5068,0.5048,0.0201,-0.1039,-0.0718,0
22968079,0.4850,0.5031,-0.5069,0.5047,0.0170,-0.0935,-0.0777,0
22968245,0.4850,0.5031,-0.5070,0.5046,-0.0020,-0.0899,-0.0543,0
22968412,0.4850,0.5031,-0.5070,0.5046,0.0136,-0.0836,-0.0434,0
22968579,0.4850,0.5031,-0.5071,0.5045,0.0234,-0.0912,-0.0619,0
22968745,0.4850,0.5031,-0.5072,0.5044,0.0276,-0.1135,-0.0613,0
22968912,0.4851,0.5030,-0.5073,0.5043,0.0173,-0.1121,-0.0566,0
22969079,0.4850,0.5031,-0.5073,0.5043,0.0147,-0.1071,-0.0487,0
22969245,0.4851,0.5031,-0.5074,0.5042,0.0266,-0.1000,-0.0671,0
22969412,0.4851,0.5031,-0.5075,0.5041,0.0153,-0.1208,-0.0612,0
22969579,0.4851,0.5030,-0.5076,0.5040,0.0095,-0.1084,-0.0669,0
22969745,0.4852,0.5029,-0.5078,0.5038,0.0101,-0.1011,-0.0613,0
22969912,0.4853,0.5029,-0.5079,0.5037,0.0188,-0.1171,-0.0566,0
22970079,0.4853,0.5028,-0.5080,0.5036,0.0173,-0.1175,-0.0601,0
22970245,0.4853,0.5029,-0.5080,0.5035,0.0243,-0.1053,-0.0664,0
22970412,0.4853,0.5029,-0.5081,0.5034,0.0035,-0.1022,-0.0697,0
22970579,0.4853,0.5028,-0.5082,0.5033,0.0222,-0.1001,-0.0553,0
22970745,0.4853,0.5028,-0.5082,0.5033,0.0058,-0.1203,-0.0583,0
22970912,0.4854,0.5028,-0.5083,0.5032,0.0055,-0.1265,-0.0580,0
22971079,0.4853,0.5028,-0.5084,0.5032,0.0202,-0.1354,-0.0571,0
22971245,0.4854,0.5028,-0.5084,0.5031,0.0251,-0.1143,-0.0627,0
22971412,0.4854,0.5028,-0.5085,0.5030,0.0231,-0.1166,-0.0628,0
22971579,0.4854,0.5028,-0.5086,0.5029,0.0231,-0.1050,-0.0565,0
22971745,0.4854,0.5028,-0.5086,0.5029,0.0144,-0.1262,-0.0577,0
22971912,0.4854,0.5028,-0.5087,0.5028,0.0244,-0.1304,-0.0685,0
22972079,0.4855,0.5027,-0.5088,0.5027,0.0125,-0.1234,-0.0665,0
22972245,0.4855,0.5027,-0.5089,0.5026,0.0108,-0.1441,-0.0510,0
22972412,0.4856,0.5026,-0.5090,0.5025,0.0139,-0.1414,-0.0400,0
22972579,0.4856,0.5026,-0.5091,0.5024,0.0120,-0.1154,-0.0567,0
22972745,0.4857,0.5026,-0.5092,0.5023,0.0241,-0.1316,-0.0497,0
22972912,0.4856,0.5026,-0.5092,0.5023,0.0230,-0.1026,-0.0596,0
22973079,0.4857,0.5025,-0.5093,0.5022,0.0181,-0.1309,-0.0597,0
22973245,0.4857,0.5025,-0.5094,0.5021,0.0115,-0.1284,-0.0683,0
22973412,0.4857,0.5026,-0.5094,0.5021,0.0068,-0.1382,-0.0484,0
22973579,0.4857,0.5025,-0.5095,0.5020,0.0188,-0.1228,-0.0644,0
22973745,0.4858,0.5025,-0.5096,0.5019,0.0151,-0.1238,-0.0546,0
22973912,0.4858,0.5025,-0.5097,0.5018,0.0253,-0.1452,-0.0515,0
22974079,0.4858,0.5025,-0.5097,0.5017,0.0147,-0.1485,-0.0529,0
22974246,0.4858,0.5024,-0.5098,0.5017,0.0237,-0.1360,-0.0512,0
22974412,0.4858,0.5024,-0.5099,0.5016,0.0180,-0.1361,-0.0548,0
22974579,0.4858,0.5024,-0.5099,0.5016,0.0237,-0.1456,-0.0596,0
22974746,0.4858,0.5024,-0.5100,0.5015,0.0222,-0.1380,-0.0670,0
22974912,0.4859,0.5023,-0.5101,0.5014,0.0070,-0.1414,-0.0555,0
22975079,0.4859,0.5023,-0.5101,0.5013,0.0180,-0.1595,-0.0588,0
22975246,0.4859,0.5023,-0.5102,0.5013,0.0162,-0.1271,-0.0523,0
22975412,0.4859,0.5023,-0.5102,0.5012,0.0202,-0.1545,-0.0638,0
22975579,0.4860,0.5023,-0.5103,0.5011,0.0162,-0.1323,-0.0606,0
22975746,0.4860,0.5022,-0.5104,0.5011,0.0176,-0.1428,-0.0644,0
22975912,0.4860,0.5022,-0.5104,0.5010,0.0216,-0.1470,-0.0426,0
22976079,0.4860,0.5022,-0.5105,0.5009,0.0279,-0.1794,-0.0533,0
22976246,0.4860,0.5022,-0.5105,0.5009,0.0243,-0.1482,-0.0748,0
22976412,0.4861,0.5022,-0.5106,0.5008,0.0195,-0.1478,-0.0556,0
22976579,0.4860,0.5022,-0.5106,0.5008,0.0194,-0.1585,-0.0658,0
22976746,0.4860,0.5022,-0.5107,0.5008,0.0159,-0.1545,-0.0573,0
22976912,0.4861,0.5022,-0.5107,0.5007,0.0079,-0.1317,-0.0470,0
22977079,0.4861,0.5022,-0.5108,0.5007,0.0259,-0.1603,-0.0622,0
22977246,0.4861,0.5022,-0.5108,0.5006,0.0055,-0.1448,-0.0676,0
22977412,0.4861,0.5022,-0.5108,0.5006,0.0113,-0.1624,-0.0510,0
22977579,0.4844,0.5030,-0.5022,0.5100,0.0031,0.0046,-0.0545,0
22977746,0.4844,0.5030,-0.5022,0.5100,0.0052,-0.0121,-0.0505,0
22977912,0.4844,0.5030,-0.5022,0.5100,-0.0042,0.0041,-0.0589,0
22978079,0.4844,0.5030,-0.5022,0.5100,0.0047,0.0055,-0.0480,0
22978246,0.4844,0.5030,-0.5022,0.5100,-0.0054,0.0235,-0.0540,0
22978412,0.4844,0.5030,-0.5022,0.5100,0.0092,0.0010,-0.0580,0
22978912,0.4844,0.5030,-0.5022,0.5100,-0.0013,-0.0117,-0.0547,0
22979079,0.4844,0.5030,-0.5022,0.5100,0.0087,-0.0130,-0.0475,0
22979246,0.4844,0.5030,-0.5022,0.5100,-0.0040,0.0010,-0.0519,0
22979579,0.4844,0.5030,-0.5022,0.5100,0.0022,-0.0016,-0.0520,0
22979746,0.4844,0.5030,-0.5022,0.5100,0.0054,-0.0079,-0.0626,0
22979912,0.4844,0.5030,-0.5022,0.5100,0.0014,0.0322,-0.0407,0
22980079,0.4844,0.5030,-0.5022,0.5100,0.0000,-0.0202,-0.0549,0
22980246,0.4844,0.5030,-0.5022,0.5100,-0.0058,0.0039,-0.0560,0
22980412,0.4844,0.5030,-0.5022,0.5100,0.0054,-0.0179,-0.0624,0
22980579,0.4844,0.5030,-0.5022,0.5100,0.0069,0.0159,-0.0598,0
22980746,0.4844,0.5030,-0.5022,0.5100,0.0012,-0.0010,-0.0475,0
22980912,0.4844,0.5030,-0.5022,0.5100,-0.0004,0.0089,-0.0823,0
22981079,0.4844,0.5030,-0.5022,0.5100,0.0031,-0.0055,-0.0585,0
22981246,0.4844,0.5030,-0.5022,0.5100,0.0010,0.0226,-0.0692,0
22981412,0.4844,0.5030,-0.5022,0.5100,-0.0069,0.0139,-0.0672,0
22981579,0.4844,0.5030,-0.5022,0.5100,-0.0054,0.0117,-0.0435,0
22981746,0.4844,0.5030,-0.5022,0.5100,0.0039,0.0089,-0.0657,0
22981912,0.4844,0.5030,-0.5022,0.5100,-0.0153,0.0210,-0.0645,0
22982079,0.4844,0.5030,-0.5022,0.5100,-0.0003,0.0084,-0.0650,0
22982246,0.4844,0.5030,-0.5022,0.5100,0.0018,-0.0055,-0.0582,0
22982412,0.4844,0.5030,-0.5022,0.5100,-0.0041,0.0001,-0.0608,0
22982579,0.4844,0.5030,-0.5022,0.5100,-0.0107,-0.0045,-0.0579,0
22982746,0.4844,0.5030,-0.5022,0.5100,0.0056,-0.0163,-0.0596,0
22982912,0.4844,0.5030,-0.5022,0.5100,-0.0007,-0.0323,-0.0685,0
22983246,0.4844,0.5030,-0.5022,0.5100,-0.0086,-0.0036,-0.0571,0
22983412,0.4844,0.5030,-0.5022,0.5100,-0.0072,-0.0080,-0.0508,0
22983579,0.4844,0.5030,-0.5022,0.5100,0.0029,0.0110,-0.0534,0
22983746,0.4844,0.5030,-0.5022,0.5100,-0.0035,0.0036,-0.0468,0
22983912,0.4844,0.5030,-0.5022,0.5100,-0.0019,-0.0121,-0.0481,0
22984079,0.4845,0.5029,-0.5024,0.5098,-0.0029,-0.0174,-0.0556,0
22984246,0.4845,0.5029,-0.5024,0.5099,-0.0113,-0.0008,-0.0558,0
22984412,0.4844,0.5030,-0.5023,0.5100,-0.0037,-0.0022,-0.0556,0
22984579,0.4844,0.5030,-0.5022,0.5100,0.0031,-0.0164,-0.0548,0
22984746,0.4844,0.5030,-0.5022,0.5100,0.0068,-0.0026,-0.0552,0
22984912,0.4844,0.5030,-0.5022,0.5100,0.0066,-0.0037,-0.0613,0
22985079,0.4844,0.5030,-0.5022,0.5100,-0.0037,0.0046,-0.0524,0
22985246,0.4844,0.5030,-0.5022,0.5100,0.0064,-0.0090,-0.0620,0
22985412,0.4844,0.5030,-0.5022,0.5100,-0.0120,-0.0013,-0.0608,0
22985579,0.4844,0.5030,-0.5022,0.5100,-0.0033,-0.0063,-0.0713,0
22985746,0.4844,0.5031,-0.5022,0.5100,-0.0112,-0.0022,-0.0641,0
22985912,0.4843,0.5031,-0.5022,0.5100,0.0069,-0.0124,-0.0480,0
22986079,0.4843,0.5031,-0.5022,0.5101,-0.0033,-0.0212,-0.0934,0
22986246,0.4843,0.5031,-0.5022,0.5101,0.0100,0.0022,-0.0401,0
22986412,0.4843,0.5031,-0.5022,0.5101,-0.0166,-0.0113,-0.0577,0
22986579,0.4843,0.5031,-0.5022,0.5101,0.0002,-0.0026,-0.0807,0
22986746,0.4843,0.5031,-0.5021,0.5101,-0.0017,0.0079,-0.0443,0
22986912,0.4843,0.5031,-0.5021,0.5101,-0.0008,-0.0431,-0.0567,0
22987079,0.4843,0.5031,-0.5021,0.5101,0.0012,0.0146,-0.0557,0
22987246,0.4843,0.5032,-0.5021,0.5101,-0.0108,0.0037,-0.0613,0
22987412,0.4843,0.5031,-0.5021,0.5101,0.0051,0.0121,-0.0549,0
22987579,0.4842,0.5032,-0.5021,0.5101,0.0041,-0.0197,-0.0718,0
22987746,0.4842,0.5032,-0.5021,0.5102,-0.0022,0.0187,-0.0438,0
22987912,0.4842,0.5032,-0.5021,0.5101,-0.0111,-0.0038,-0.0690,0
22988079,0.4843,0.5031,-0.5021,0.5101,-0.0121,0.0364,-0.0664,0
22988246,0.4842,0.5031,-0.5021,0.5101,0.0089,-0.0157,-0.0692,0
22988412,0.4843,0.5031,-0.5021,0.5101,0.0146,0.0097,-0.0533,0
22988579,0.4843,0.5031,-0.5022,0.5101,0.0020,-0.0464,-0.0697,0
22988746,0.4842,0.5032,-0.5021,0.5101,0.0093,0.0183,-0.0718,0
22988912,0.4842,0.5032,-0.5021,0.5102,0.0118,-0.0192,-0.0460,0
22989079,0.4842,0.5032,-0.5021,0.5102,0.0119,0.0458,-0.0507,0
22989246,0.4842,0.5032,-0.5021,0.5102,0.0046,-0.0332,-0.0511,0
22989412,0.4842,0.5032,-0.5021,0.5102,-0.0168,0.0331,-0.0478,0
22989579,0.4842,0.5032,-0.5021,0.5102,-0.0059,-0.0315,-0.0906,0
22989746,0.4841,0.5032,-0.5020,0.5102,-0.0155,0.0436,-0.0444,0
22989912,0.4841,0.5033,-0.5020,0.5102,-0.0170,-0.0391,-0.0243,0
22990079,0.4841,0.5032,-0.5020,0.5102,0.0256,0.0426,-0.0808,0
22990246,0.4841,0.5033,-0.5020,0.5102,0.0259,-0.0699,-0.0893,0
22990412,0.4841,0.5033,-0.5020,0.5102,-0.0030,0.0524,-0.0567,0
22990579,0.4841,0.5033,-0.5020,0.5102,0.0067,-0.0621,-0.0520,0
22990746,0.4840,0.5033,-0.5020,0.5102,-0.0008,0.0523,-0.0683,0
22990913,0.4840,0.5033,-0.5020,0.5102,0.0110,-0.0456,-0.0613,0
22991079,0.4840,0.5033,-0.5020,0.5102,-0.0024,0.0390,-0.0401,0
22991246,0.4840,0.5033,-0.5020,0.5103,0.0023,-0.0628,-0.0526,0
22991413,0.4840,0.5033,-0.5021,0.5103,-0.0001,0.0443,-0.0643,0
22991579,0.4840,0.5034,-0.5020,0.5103,-0.0005,-0.0557,-0.0672,0
22991746,0.4839,0.5034,-0.5020,0.5103,0.0146,0.0598,-0.0566,0
22991913,0.4839,0.5034,-0.5020,0.5103,0.0015,-0.0407,-0.0646,0
22992079,0.4839,0.5034,-0.5020,0.5103,-0.0033,0.0364,-0.0488,0
22992246,0.4839,0.5034,-0.5020,0.5103,-0.0112,-0.0210,-0.0538,0
22992413,0.4839,0.5034,-0.5020,0.5103,0.0003,0.0183,-0.0678,0
22992579,0.4839,0.5034,-0.5020,0.5103,0.0056,-0.0081,-0.0476,0
22992746,0.4839,0.5034,-0.5020,0.5103,-0.0045,-0.0006,-0.0647,0
22992913,0.4839,0.5034,-0.5020,0.5103,0.0040,-0.0371,-0.0459,0
22993079,0.4839,0.5034,-0.5020,0.5103,-0.0036,0.0085,-0.0636,0
22993246,0.4839,0.5034,-0.5019,0.5103,0.0019,0.0003,-0.0571,0
22993413,0.4839,0.5035,-0.5019,0.5103,0.0052,0.0266,-0.0519,0
22993579,0.4839,0.5034,-0.5019,0.5104,-0.0040,-0.0034,-0.0464,0
22993746,0.4838,0.5035,-0.5020,0.5103,-0.0038,-0.0218,-0.0539,0
22993913,0.4839,0.5034,-0.5019,0.5104,0.0040,0.0116,-0.0585,0
22994079,0.4838,0.5035,-0.5019,0.5104,0.0095,-0.0306,-0.0526,0
22994246,0.4839,0.5035,-0.5019,0.5104,0.0303,0.0401,-0.0858,0
22994413,0.4838,0.5035,-0.5019,0.5104,-0.0092,-0.0384,-0.0559,0
22994579,0.4838,0.5035,-0.5019,0.5104,-0.0043,0.0199,-0.0495,0
22994746,0.4838,0.5035,-0.5019,0.5104,-0.0079,-0.0432,-0.0494,0
22994913,0.4838,0.5035,-0.5019,0.5104,-0.0053,0.0230,-0.0592,0
22995079,0.4838,0.5035,-0.5019,0.5104,-0.0030,-0.0413,-0.0586,0
22995246,0.4838,0.5035,-0.5019,0.5104,0.0205,0.0255,-0.0729,0
22995413,0.4838,0.5035,-0.5019,0.5104,0.0000,-0.0277,-0.0546,0
22995579,0.4838,0.5035,-0.5019,0.5104,-0.0032,0.0388,-0.0785,0
22995746,0.4838,0.5035,-0.5019,0.5105,-0.0024,-0.0331,-0.0597,0
22995913,0.4838,0.5035,-0.5019,0.5105,-0.0079,0.0271,-0.0503,0
22996079,0.4838,0.5035,-0.5019,0.5105,0.0031,-0.0284,-0.0668,0
22996246,0.4837,0.5035,-0.5019,0.5105,0.0020,0.0240,-0.0669,0
22996413,0.4837,0.5035,-0.5019,0.5105,-0.0093,-0.0311,-0.0579,0
22996579,0.4837,0.5035,-0.5019,0.5105,-0.0028,0.0075,-0.0735,0
22996746,0.4837,0.5035,-0.5019,0.5105,-0.0008,-0.0137,-0.0564,0
22996913,0.4837,0.5036,-0.5019,0.5105,0.0094,0.0121,-0.0573,0
22997079,0.4837,0.5036,-0.5018,0.5105,-0.0098,-0.0374,-0.0593,0
22997246,0.4836,0.5036,-0.5018,0.5105,-0.0035,-0.0079,-0.0619,0
22997579,0.4837,0.5036,-0.5017,0.5105,-0.0052,0.0264,-0.0566,0
22997746,0.4837,0.5036,-0.5017,0.5105,0.0046,-0.0236,-0.0500,0
22997913,0.4837,0.5037,-0.5017,0.5105,0.0077,-0.0016,-0.0380,0
22998079,0.4837,0.5036,-0.5017,0.5105,0.0032,-0.0044,-0.0470,0
22998246,0.4837,0.5037,-0.5017,0.5105,0.0141,0.0056,-0.0620,0
22998413,0.4837,0.5037,-0.5017,0.5105,-0.0072,-0.0223,-0.0570,0
22998579,0.4837,0.5037,-0.5017,0.5105,-0.0163,0.0318,-0.0632,0
22998746,0.4837,0.5037,-0.5017,0.5105,0.0122,-0.0069,-0.0453,0
22998913,0.4837,0.5037,-0.5017,0.5105,0.0039,-0.0014,-0.0607,0
22999079,0.4837,0.5036,-0.5017,0.5105,-0.0002,0.0011,-0.0518,0
22999246,0.4837,0.5036,-0.5017,0.5105,0.0136,0.0054,-0.0558,0
22999413,0.4837,0.5036,-0.5017,0.5105,0.0041,-0.0063,-0.0441,0
22999746,0.4837,0.5036,-0.5017,0.5105,-0.0092,0.0093,-0.0434,0
22999913,0.4837,0.5036,-0.5017,0.5105,-0.0054,-0.0119,-0.0534,0
23000079,0.4837,0.5037,-0.5017,0.5105,0.0103,-0.0077,-0.0648,0
23000246,0.4837,0.5037,-0.5017,0.5106,0.0026,-0.0115,-0.0591,0
23000413,0.4837,0.5037,-0.5017,0.5106,-0.0050,0.0156,-0.0605,0
23000579,0.4837,0.5037,-0.5017,0.5106,0.0184,-0.0069,-0.0716,0
23000746,0.4837,0.5037,-0.5017,0.5106,0.0071,-0.0081,-0.0680,0
23000913,0.4837,0.5037,-0.5017,0.5106,0.0039,0.0013,-0.0520,0
23001246,0.4837,0.5037,-0.5017,0.5106,0.0158,-0.0021,-0.0560,0
23001413,0.4837,0.5037,-0.5017,0.5106,0.0135,0.0033,-0.0553,0
23001579,0.4837,0.5037,-0.5017,0.5106,-0.0007,-0.0074,-0.0649,0
23001746,0.4837,0.5037,-0.5017,0.5106,-0.0036,0.0157,-0.0525,0
23001913,0.4837,0.5037,-0.5017,0.5105,0.0089,0.0036,-0.0655,0
23002079,0.4836,0.5037,-0.5017,0.5106,-0.0096,-0.0053,-0.0514,0
23002246,0.4836,0.5037,-0.5017,0.5106,0.0095,-0.0127,-0.0539,0
23002413,0.4836,0.5037,-0.5017,0.5106,-0.0111,0.0194,-0.0675,0
23002579,0.4836,0.5037,-0.5017,0.5106,-0.0056,0.0101,-0.0643,0
23002746,0.4836,0.5038,-0.5016,0.5106,-0.0110,-0.0013,-0.0602,0
23002913,0.4836,0.5038,-0.5016,0.5106,0.0001,-0.0116,-0.0747,0
23003079,0.4836,0.5038,-0.5016,0.5106,0.0173,-0.0111,-0.0601,0
23003246,0.4836,0.5038,-0.5016,0.5106,-0.0002,-0.0167,-0.0524,0
23003413,0.4836,0.5038,-0.5016,0.5106,0.0047,0.0042,-0.0601,0
23003579,0.4836,0.5038,-0.5016,0.5106,-0.0082,0.0039,-0.0624,0
23003746,0.4836,0.5038,-0.5016,0.5106,0.0061,-0.0107,-0.0972,0
23003913,0.4836,0.5038,-0.5016,0.5106,-0.0064,-0.0129,-0.0396,0
23004079,0.4836,0.5038,-0.5016,0.5106,0.0203,-0.0060,-0.0463,0
23004246,0.4836,0.5038,-0.5016,0.5106,0.0018,-0.0122,-0.0603,0
23004413,0.4836,0.5038,-0.5016,0.5106,0.0037,0.0124,-0.0699,0
23004579,0.4836,0.5038,-0.5016,0.5106,0.0084,-0.0170,-0.0547,0
23004746,0.4836,0.5038,-0.5016,0.5106,0.0003,0.0155,-0.0428,0
23004913,0.4836,0.5038,-0.5016,0.5106,-0.0003,-0.0033,-0.0481,0
23005079,0.4836,0.5038,-0.5016,0.5106,0.0047,-0.0106,-0.0746,0
23005246,0.4836,0.5038,-0.5016,0.5106,0.0013,-0.0304,-0.0493,0
23005413,0.4836,0.5038,-0.5016,0.5106,-0.0071,-0.0134,-0.0288,0
23005579,0.4836,0.5038,-0.5016,0.5106,0.0019,0.0076,-0.0571,0
23005913,0.4836,0.5038,-0.5016,0.5106,-0.0140,-0.0028,-0.0360,0
23006079,0.4836,0.5038,-0.5016,0.5107,-0.0108,-0.0111,-0.0470,0
23006246,0.4835,0.5038,-0.5016,0.5106,0.0120,0.0160,-0.0597,0
23006413,0.4836,0.5038,-0.5016,0.5106,-0.0112,-0.0162,-0.0641,0
23006579,0.4835,0.5038,-0.5016,0.5106,0.0078,0.0055,-0.0491,0
23006746,0.4836,0.5038,-0.5016,0.5106,-0.0062,-0.0037,-0.0553,0
23006913,0.4836,0.5038,-0.5016,0.5106,-0.0123,0.0009,-0.0254,0
23007079,0.4836,0.5038,-0.5016,0.5107,0.0016,0.0058,-0.0873,0
23007246,0.4835,0.5038,-0.5016,0.5106,0.0077,-0.0358,-0.1015,0
23007413,0.4836,0.5038,-0.5016,0.5107,0.0176,0.0328,-0.0448,0
23007580,0.4835,0.5038,-0.5016,0.5107,-0.0183,-0.0014,-0.0623,0
23007746,0.4835,0.5038,-0.5016,0.5107,-0.0061,0.0287,-0.0618,0
23007913,0.4835,0.5038,-0.5016,0.5107,0.0043,-0.0296,-0.0831,0
23008080,0.4835,0.5038,-0.5016,0.5107,0.0025,0.0202,-0.0596,0
23008246,0.4835,0.5038,-0.5016,0.5107,0.0067,-0.0293,-0.0631,0
23008746,0.4835,0.5038,-0.5016,0.5107,-0.0017,0.0228,-0.0581,0
23008913,0.4835,0.5038,-0.5016,0.5107,0.0001,-0.0199,-0.0573,0
23009080,0.4835,0.5038,-0.5016,0.5107,-0.0116,0.0345,-0.0602,0
23009246,0.4835,0.5038,-0.5016,0.5107,0.0143,-0.0223,-0.0621,0
23009413,0.4835,0.5038,-0.5016,0.5107,-0.0110,0.0327,-0.0451,0
23009580,0.4835,0.5038,-0.5016,0.5107,0.0023,-0.0297,-0.0481,0
23009746,0.4835,0.5038,-0.5016,0.5107,-0.0030,0.0172,-0.0537,0
23009913,0.4835,0.5038,-0.5016,0.5107,0.0041,-0.0178,-0.0605,0
23010080,0.4835,0.5038,-0.5016,0.5107,-0.0031,0.0105,-0.0511,0
23010246,0.4835,0.5038,-0.5016,0.5107,-0.0058,-0.0380,-0.0759,0
23010413,0.4835,0.5038,-0.5016,0.5107,0.0163,0.0070,-0.0625,0
23010580,0.4835,0.5038,-0.5016,0.5107,-0.0138,-0.0305,-0.0556,0
23010746,0.4835,0.5038,-0.5016,0.5107,-0.0058,0.0016,-0.0670,0
23010913,0.4835,0.5038,-0.5016,0.5107,-0.0138,-0.0132,-0.0668,0
23011080,0.4835,0.5038,-0.5016,0.5107,-0.0092,-0.0184,-0.0596,0
23011246,0.4835,0.5038,-0.5016,0.5107,0.0058,-0.0171,-0.0448,0
23011413,0.4835,0.5038,-0.5016,0.5107,0.0013,-0.0013,-0.0579,0
23011580,0.4835,0.5038,-0.5016,0.5107,0.0059,0.0019,-0.0522,0
23011746,0.4835,0.5038,-0.5016,0.5107,0.0009,-0.0110,-0.0645,0
23011913,0.4835,0.5038,-0.5016,0.5107,-0.0012,-0.0107,-0.0494,0
23012080,0.4835,0.5038,-0.5016,0.5107,-0.0167,-0.0289,-0.0519,0
23012246,0.4835,0.5038,-0.5016,0.5107,0.0100,0.0015,-0.0408,0
23012413,0.4835,0.5038,-0.5016,0.5107,0.0123,-0.0027,-0.0612,0
23012580,0.4835,0.5038,-0.5016,0.5107,0.0050,0.0172,-0.0543,0
23012913,0.4835,0.5038,-0.5016,0.5107,-0.0002,0.0020,-0.0619,0
23013413,0.4835,0.5039,-0.5015,0.5107,0.0013,0.0008,-0.0442,0
23013580,0.4835,0.5039,-0.5015,0.5107,-0.0051,0.0067,-0.0422,0
23013746,0.4834,0.5039,-0.5015,0.5107,-0.0073,0.0028,-0.0462,0
23014080,0.4834,0.5039,-0.5015,0.5107,-0.0073,-0.0205,-0.0511,0
23014246,0.4834,0.5039,-0.5015,0.5107,0.0009,0.0122,-0.0534,0
23014413,0.4834,0.5039,-0.5015,0.5108,-0.0040,-0.0020,-0.0697,0
23014580,0.4834,0.5039,-0.5015,0.5108,-0.0085,0.0147,-0.0624,0
23014746,0.4834,0.5039,-0.5015,0.5108,-0.0058,-0.0055,-0.0636,0
23014913,0.4834,0.5039,-0.5015,0.5108,-0.0050,-0.0000,-0.0541,0
23015080,0.4834,0.5039,-0.5015,0.5108,0.0042,-0.0020,-0.0630,0
23015246,0.4834,0.5039,-0.5015,0.5108,0.0055,-0.0054,-0.0553,0
23015913,0.4834,0.5040,-0.5015,0.5108,0.0111,0.0338,0.0023,0
23016080,0.4834,0.5039,-0.5015,0.5108,-0.0077,-0.0206,-0.0689,0
23016246,0.4833,0.5040,-0.5015,0.5108,-0.0322,0.0142,-0.0254,0
23016413,0.4834,0.5039,-0.5015,0.5108,-0.0040,-0.0269,-0.1167,0
23016580,0.4833,0.5040,-0.5015,0.5108,0.0074,0.0049,-0.0429,0
23016746,0.4834,0.5039,-0.5015,0.5108,-0.0031,-0.0622,-0.0659,0
23017080,0.4834,0.5039,-0.5015,0.5108,0.0048,0.0110,-0.0524,0
23017246,0.4834,0.5040,-0.5015,0.5108,-0.0154,-0.0054,-0.0565,0
23017413,0.4834,0.5039,-0.5015,0.5108,0.0037,-0.0251,-0.0621,0
23017913,0.4835,0.5039,-0.5015,0.5108,0.0168,0.0192,-0.0502,0
23018080,0.4835,0.5038,-0.5015,0.5108,-0.0116,0.0013,-0.0783,0
23018246,0.4834,0.5039,-0.5015,0.5107,-0.0174,-0.0196,-0.0023,0
23018580,0.4835,0.5039,-0.5015,0.5107,0.0221,-0.0157,-0.0847,0
23018746,0.4835,0.5038,-0.5014,0.5108,-0.0085,0.0099,-0.0480,0
23018913,0.4834,0.5039,-0.5015,0.5108,-0.0102,-0.0473,-0.0431,0
23019080,0.4835,0.5038,-0.5015,0.5108,0.0065,0.0539,-0.0827,0
23019246,0.4834,0.5039,-0.5015,0.5108,0.0175,-0.0462,-0.0737,0
23019413,0.4835,0.5039,-0.5015,0.5108,0.0162,0.0499,-0.0538,0
23019580,0.4834,0.5039,-0.5015,0.5108,-0.0232,-0.0414,-0.0240,0
23019746,0.4835,0.5039,-0.5014,0.5108,-0.0144,0.0488,-0.0890,0
23020080,0.4835,0.5039,-0.5014,0.5108,0.0054,0.0354,-0.0739,0
23020246,0.4834,0.5039,-0.5015,0.5108,-0.0132,-0.0393,-0.0522,0
23020413,0.4834,0.5039,-0.5015,0.5108,-0.0094,0.0467,-0.0753,0
23020580,0.4834,0.5039,-0.5015,0.5108,-0.0020,-0.0414,-0.0527,0
23020746,0.4834,0.5039,-0.5015,0.5108,0.0018,0.0533,-0.0431,0
23020913,0.4834,0.5039,-0.5015,0.5108,-0.0027,-0.0626,-0.0626,0
23021246,0.4834,0.5039,-0.5015,0.5108,0.0026,-0.0298,0.0073,0
23021413,0.4835,0.5039,-0.5015,0.5108,-0.0076,-0.0042,-0.1263,0
23021580,0.4834,0.5039,-0.5015,0.5108,0.0003,0.0020,-0.0253,0
23021746,0.4835,0.5039,-0.5015,0.5108,-0.0090,0.0005,-0.1042,0
23021913,0.4834,0.5039,-0.5015,0.5108,-0.0146,-0.0208,-0.0301,0
23022080,0.4834,0.5039,-0.5015,0.5108,0.0102,0.0043,-0.0665,0
23022246,0.4834,0.5039,-0.5015,0.5108,-0.0049,-0.0216,-0.0546,0
23022413,0.4834,0.5039,-0.5015,0.5108,-0.0093,0.0258,-0.0547,0
23022580,0.4834,0.5039,-0.5015,0.5108,0.0058,-0.0452,-0.0955,0
23022746,0.4834,0.5039,-0.5014,0.5108,0.0094,0.0118,-0.0600,0
23022913,0.4834,0.5040,-0.5015,0.5108,0.0109,-0.0142,-0.0571,0
23023080,0.4834,0.5039,-0.5014,0.5108,-0.0172,0.0261,-0.0619,0
23023246,0.4834,0.5040,-0.5015,0.5108,-0.0058,-0.0326,-0.0644,0
23023413,0.4834,0.5039,-0.5014,0.5108,0.0023,-0.0073,-0.0575,0
23023580,0.4834,0.5040,-0.5015,0.5108,0.0091,-0.0249,-0.0504,0
23023746,0.4834,0.5039,-0.5014,0.5108,0.0090,0.0022,-0.0697,0
23023913,0.4834,0.5040,-0.5015,0.5108,-0.0194,-0.0396,-0.0644,0
23024080,0.4834,0.5040,-0.5014,0.5108,0.0045,0.0088,-0.0407,0
23024247,0.4834,0.5039,-0.5015,0.5108,0.0044,-0.0276,-0.0884,0
23024413,0.4834,0.5040,-0.5015,0.5108,0.0140,-0.0079,-0.0379,0
23024580,0.4834,0.5039,-0.5014,0.5108,-0.0182,-0.0160,-0.0651,0
23024747,0.4834,0.5040,-0.5015,0.5108,-0.0240,-0.0219,-0.0560,0
23024913,0.4834,0.5039,-0.5014,0.5108,-0.0091,0.0355,-0.0582,0
23025080,0.4834,0.5040,-0.5015,0.5108,0.0099,-0.0404,-0.0620,0
23025247,0.4834,0.5040,-0.5014,0.5108,0.0173,0.0209,-0.0428,0
23025413,0.4834,0.5040,-0.5014,0.5108,0.0007,-0.0140,-0.0631,0
23025580,0.4834,0.5040,-0.5014,0.5108,-0.0166,0.0099,-0.0618,0
23025747,0.4834,0.5040,-0.5014,0.5108,0.0005,-0.0039,-0.0600,0
23025913,0.4834,0.5040,-0.5014,0.5108,-0.0022,-0.0013,-0.0686,0
23026080,0.4834,0.5040,-0.5014,0.5108,0.0016,-0.0293,-0.0688,0
23026247,0.4834,0.5040,-0.5014,0.5108,0.0136,-0.0013,-0.0522,0
23026413,0.4833,0.5040,-0.5014,0.5108,-0.0025,-0.0285,-0.0756,0
23026580,0.4833,0.5040,-0.5015,0.5108,-0.0085,0.0236,-0.0495,0
23026747,0.4833,0.5040,-0.5015,0.5108,-0.0085,-0.0247,-0.0576,0
23026913,0.4833,0.5040,-0.5015,0.5108,0.0007,0.0577,-0.0560,0
23027080,0.4833,0.5040,-0.5014,0.5108,0.0173,-0.0746,-0.0807,0
23027247,0.4833,0.5040,-0.5015,0.5108,0.0181,0.0209,-0.0612,0
23027413,0.4834,0.5040,-0.5015,0.5108,-0.0038,-0.0331,-0.0552,0
23027580,0.4834,0.5040,-0.5015,0.5108,-0.0167,-0.0037,-0.0433,0
23027747,0.4834,0.5040,-0.5015,0.5108,-0.0213,-0.0172,-0.0569,0
23027913,0.4834,0.5040,-0.5015,0.5108,0.0131,0.0064,-0.0746,0
23028080,0.4834,0.5040,-0.5015,0.5108,0.0372,-0.0135,-0.0439,0
23028247,0.4834,0.5040,-0.5015,0.5108,0.0199,0.0086,-0.0458,0
23028413,0.4834,0.5040,-0.5015,0.5108,-0.0229,-0.0050,-0.0553,0
23028580,0.4834,0.5040,-0.5015,0.5108,-0.0048,0.0112,-0.0656,0
23028747,0.4834,0.5040,-0.5015,0.5108,0.0071,-0.0095,-0.0582,0
23028913,0.4834,0.5040,-0.5015,0.5107,0.0074,-0.0017,-0.0519,0
23029080,0.4834,0.5040,-0.5015,0.5107,0.0133,-0.0124,-0.0589,0
23029247,0.4834,0.5040,-0.5015,0.5107,-0.0216,-0.0230,-0.0511,0
23029413,0.4834,0.5040,-0.5015,0.5108,0.0014,0.0035,-0.0576,0
23029580,0.4834,0.5040,-0.5015,0.5108,0.0082,0.0091,-0.0760,0
23029747,0.4834,0.5040,-0.5015,0.5108,0.0054,-0.0116,-0.0726,0
23029913,0.4834,0.5040,-0.5015,0.5108,-0.0007,0.0193,-0.0280,0
23030080,0.4834,0.5040,-0.5015,0.5108,-0.0041,-0.0297,-0.0886,0
23030247,0.4834,0.5040,-0.5015,0.5108,0.0194,0.0061,-0.0401,0
23030413,0.4834,0.5039,-0.5015,0.5108,0.0040,-0.0181,-0.0728,0
23030580,0.4834,0.5040,-0.5015,0.5108,-0.0129,0.0042,-0.0501,0
23030747,0.4834,0.5040,-0.5015,0.5108,0.0011,0.0194,-0.0505,0
23030913,0.4834,0.5040,-0.5015,0.5108,0.0009,-0.0038,-0.0576,0
23031080,0.4833,0.5040,-0.5015,0.5108,0.0204,-0.0279,-0.0609,0
23031247,0.4833,0.5040,-0.5015,0.5108,-0.0033,-0.0058,-0.0656,0
23031413,0.4834,0.5039,-0.5015,0.5108,0.0003,-0.0234,-0.0582,0
23031580,0.4834,0.5040,-0.5015,0.5108,-0.0012,-0.0031,-0.0368,0
23031747,0.4834,0.5039,-0.5015,0.5108,-0.0008,-0.0169,-0.0546,0
23031913,0.4834,0.5039,-0.5015,0.5108,0.0159,-0.0216,-0.0435,0
23032080,0.4834,0.5039,-0.5015,0.5108,-0.0150,-0.0135,-0.0571,0
23032247,0.4833,0.5040,-0.5015,0.5108,-0.0047,-0.0232,-0.0363,0
23032413,0.4834,0.5039,-0.5015,0.5108,-0.0011,-0.0024,-0.0412,0
23032580,0.4834,0.5039,-0.5015,0.5107,0.0046,-0.0080,-0.0592,0
23032747,0.4834,0.5039,-0.5015,0.5107,-0.0023,-0.0128,-0.0577,0
23032913,0.4834,0.5039,-0.5015,0.5107,0.0019,-0.0257,-0.0532,0
23033080,0.4834,0.5039,-0.5015,0.5107,-0.0037,0.0221,-0.0524,0
23033247,0.4834,0.5039,-0.5016,0.5107,0.0096,-0.0150,-0.0495,0
23033413,0.4834,0.5039,-0.5015,0.5107,-0.0020,0.0226,-0.0605,0
23033580,0.4834,0.5039,-0.5015,0.5107,-0.0128,-0.0445,-0.0505,0
23033747,0.4834,0.5039,-0.5015,0.5107,-0.0029,0.0146,-0.0455,0
23033913,0.4834,0.5039,-0.5016,0.5107,0.0102,-0.0299,-0.0877,0
23034080,0.4834,0.5039,-0.5015,0.5107,0.0069,0.0063,-0.0536,0
23034247,0.4834,0.5039,-0.5016,0.5107,0.0054,-0.0350,-0.0604,0
23034413,0.4834,0.5039,-0.5016,0.5107,-0.0030,0.0212,-0.0592,0
23034580,0.4834,0.5039,-0.5016,0.5107,-0.0040,-0.0216,-0.0418,0
23034747,0.4834,0.5039,-0.5016,0.5107,0.0054,0.0044,-0.0573,0
23034913,0.4834,0.5039,-0.5016,0.5107,0.0138,-0.0014,-0.0599,0
23035080,0.4834,0.5039,-0.5016,0.5107,-0.0104,0.0158,-0.0722,0
23035247,0.4834,0.5039,-0.5016,0.5107,0.0041,-0.0017,-0.0568,0
23035413,0.4834,0.5039,-0.5016,0.5107,0.0010,0.0047,-0.0535,0
23035580,0.4834,0.5039,-0.5016,0.5107,0.0041,-0.0270,-0.0615,0
23035747,0.4834,0.5039,-0.5016,0.5107,0.0015,0.0135,-0.0497,0
23035913,0.4834,0.5039,-0.5016,0.5107,0.0073,-0.0169,-0.0722,0
23036080,0.4834,0.5039,-0.5016,0.5107,-0.0004,0.0102,-0.0415,0
23036247,0.4834,0.5039,-0.5016,0.5107,0.0022,-0.0051,-0.0565,0
23036413,0.4834,0.5039,-0.5016,0.5107,0.0042,-0.0386,-0.0673,0
23036580,0.4834,0.5039,-0.5016,0.5107,0.0132,0.0009,-0.0310,0
23036747,0.4834,0.5039,-0.5016,0.5107,-0.0051,-0.0008,-0.0614,0
23036913,0.4834,0.5039,-0.5016,0.5107,-0.0040,-0.0177,-0.0483,0
23037080,0.4834,0.5039,-0.5016,0.5107,-0.0004,-0.0091,-0.0603,0
23037247,0.4834,0.5039,-0.5016,0.5107,-0.0050,0.0012,-0.0677,0
23037413,0.4834,0.5039,-0.5016,0.5107,0.0151,-0.0204,-0.0660,0
23037580,0.4835,0.5038,-0.5015,0.5108,0.0004,-0.0180,-0.0520,0
23037747,0.4835,0.5038,-0.5015,0.5108,0.0089,-0.0168,-0.0643,0
23037913,0.4835,0.5038,-0.5015,0.5108,-0.0046,0.0052,-0.0658,0
23038080,0.4835,0.5038,-0.5015,0.5108,0.0006,-0.0082,-0.0479,0
23038247,0.4835,0.5038,-0.5015,0.5107,-0.0098,0.0034,-0.0714,0
23038413,0.4835,0.5038,-0.5015,0.5107,0.0060,-0.0204,-0.0550,0
23038580,0.4835,0.5038,-0.5015,0.5107,0.0051,0.0028,-0.0657,0
23038747,0.4835,0.5038,-0.5015,0.5107,-0.0094,-0.0412,-0.0474,0
23039580,0.4835,0.5039,-0.5015,0.5107,-0.0019,-0.0097,-0.0580,0
23039747,0.4835,0.5038,-0.5015,0.5107,0.0121,-0.0081,-0.0608,0
23039913,0.4835,0.5039,-0.5015,0.5107,-0.0015,0.0010,-0.0425,0
23040080,0.4835,0.5038,-0.5016,0.5107,0.0043,-0.0239,-0.0644,0
23040247,0.4835,0.5039,-0.5016,0.5107,-0.0078,-0.0073,-0.0500,0
23040413,0.4835,0.5038,-0.5015,0.5107,0.0110,-0.0209,-0.0639,0
23040580,0.4835,0.5039,-0.5015,0.5107,0.0201,0.0127,-0.0484,0
23040747,0.4835,0.5039,-0.5015,0.5107,0.0072,-0.0180,-0.0523,0
23040914,0.4835,0.5039,-0.5015,0.5107,-0.0005,0.0018,-0.0578,0
23041080,0.4835,0.5038,-0.5015,0.5107,0.0171,0.0001,-0.0528,0
23041247,0.4834,0.5039,-0.5015,0.5108,0.0039,0.0144,-0.0503,0
23041414,0.4834,0.5038,-0.5015,0.5108,-0.0118,-0.0128,-0.0629,0
23041914,0.4835,0.5038,-0.5016,0.5107,-0.0065,0.0077,-0.0511,0
23042080,0.4835,0.5038,-0.5016,0.5108,0.0084,-0.0014,-0.0514,0
23042247,0.4835,0.5038,-0.5016,0.5107,0.0027,0.0078,-0.0556,0
23042580,0.4835,0.5038,-0.5016,0.5108,0.0035,-0.0094,-0.0517,0
23042747,0.4835,0.5038,-0.5015,0.5108,0.0132,-0.0126,-0.0551,0
23042914,0.4834,0.5038,-0.5015,0.5108,-0.0217,0.0149,-0.0428,0
23043414,0.4834,0.5038,-0.5015,0.5108,0.0070,0.0113,-0.0617,0
23043580,0.4834,0.5038,-0.5015,0.5108,-0.0093,0.0034,-0.0149,0
23043747,0.4835,0.5038,-0.5016,0.5108,-0.0109,0.0169,-0.0606,0
23043914,0.4835,0.5038,-0.5016,0.5107,0.0148,0.0052,-0.0737,0
23044080,0.4835,0.5038,-0.5016,0.5108,0.0103,-0.0163,-0.0565,0
23044247,0.4835,0.5038,-0.5016,0.5108,0.0062,-0.0257,-0.0757,0
23044414,0.4835,0.5038,-0.5016,0.5108,-0.0082,-0.0093,-0.0666,0
23044580,0.4835,0.5038,-0.5016,0.5108,0.0029,-0.0229,-0.0608,0
23044747,0.4835,0.5038,-0.5016,0.5107,-0.0279,0.0061,-0.0649,0
23044914,0.4835,0.5038,-0.5016,0.5107,-0.0231,0.0187,-0.0399,0
23045080,0.4835,0.5038,-0.5016,0.5107,-0.0146,-0.0147,-0.0742,0
23045247,0.4835,0.5038,-0.5016,0.5107,0.0197,-0.0075,-0.0654,0
23045414,0.4835,0.5038,-0.5015,0.5107,0.0189,-0.0116,-0.0469,0
23045580,0.4835,0.5038,-0.5015,0.5107,-0.0003,-0.0081,-0.0466,0
23045747,0.4835,0.5038,-0.5015,0.5107,-0.0024,0.0154,-0.0546,0
23045914,0.4835,0.5038,-0.5015,0.5108,0.0033,-0.0366,-0.0534,0
23046080,0.4835,0.5038,-0.5015,0.5107,0.0203,0.0020,-0.0616,0
23046247,0.4835,0.5038,-0.5015,0.5107,0.0008,-0.0144,-0.0613,0
23046414,0.4835,0.5038,-0.5015,0.5107,-0.0015,0.0003,-0.0460,0
23046580,0.4835,0.5038,-0.5015,0.5107,-0.0119,-0.0077,-0.0720,0
23046747,0.4835,0.5038,-0.5015,0.5107,0.0129,-0.0106,-0.0634,0
23046914,0.4835,0.5038,-0.5015,0.5107,0.0096,-0.0157,-0.0706,0
23047080,0.4835,0.5038,-0.5015,0.5107,0.0097,-0.0305,-0.0551,0
23047247,0.4835,0.5038,-0.5015,0.5107,-0.0095,-0.0006,-0.0590,0
23047414,0.4835,0.5038,-0.5016,0.5107,0.0063,-0.0118,-0.0469,0
23047580,0.4835,0.5038,-0.5016,0.5107,-0.0015,0.0011,-0.0496,0
23047747,0.4835,0.5038,-0.5016,0.5107,-0.0025,0.0064,-0.0698,0
23047914,0.4835,0.5038,-0.5015,0.5108,0.0008,0.0209,-0.0567,0
23048080,0.4835,0.5038,-0.5015,0.5108,0.0071,0.0176,-0.0529,0
23048247,0.4835,0.5038,-0.5015,0.5108,-0.0100,-0.0127,-0.0573,0
23048414,0.4835,0.5038,-0.5015,0.5108,0.0013,0.0141,-0.0478,0
23048580,0.4835,0.5038,-0.5015,0.5108,0.0080,-0.0362,-0.0581,0
23048747,0.4835,0.5038,-0.5015,0.5108,0.0001,0.0141,-0.0652,0
23048914,0.4835,0.5038,-0.5015,0.5108,-0.0069,0.0087,-0.0574,0
23049080,0.4835,0.5038,-0.5015,0.5108,-0.0089,0.0265,-0.0526,0
23049247,0.4835,0.5038,-0.5015,0.5108,0.0095,-0.0233,-0.0647,0
23049414,0.4835,0.5038,-0.5016,0.5107,0.0200,-0.0094,-0.0512,0
23049580,0.4835,0.5038,-0.5015,0.5107,0.0070,0.0068,-0.0592,0
23049747,0.4835,0.5038,-0.5016,0.5107,0.0016,-0.0104,-0.0524,0
23049914,0.4835,0.5038,-0.5016,0.5107,-0.0121,-0.0214,-0.0567,0
23050080,0.4835,0.5038,-0.5016,0.5107,-0.0063,0.0008,-0.0597,0
23050247,0.4835,0.5038,-0.5016,0.5107,0.0082,0.0040,-0.0620,0
23050414,0.4835,0.5038,-0.5016,0.5107,-0.0193,-0.0156,-0.0639,0
23050747,0.4835,0.5038,-0.5016,0.5107,0.0203,-0.0131,-0.0960,0
23050914,0.4835,0.5038,-0.5016,0.5107,0.0008,-0.0063,-0.0387,0
23051247,0.4835,0.5038,-0.5016,0.5107,0.0010,0.0164,-0.0726,0
23051414,0.4835,0.5038,-0.5016,0.5107,-0.0030,0.0160,-0.0652,0
23051580,0.4835,0.5038,-0.5016,0.5107,0.0008,-0.0057,-0.0639,0
23051747,0.4835,0.5038,-0.5016,0.5107,-0.0063,0.0141,-0.0317,0
23051914,0.4836,0.5038,-0.5016,0.5107,-0.0146,0.0096,-0.0605,0
23052080,0.4836,0.5038,-0.5016,0.5107,0.0018,-0.0129,-0.0742,0
23052247,0.4836,0.5038,-0.5016,0.5107,0.0049,-0.0083,-0.0472,0
23052414,0.4835,0.5038,-0.5016,0.5107,-0.0150,-0.0187,-0.0564,0
23052580,0.4835,0.5038,-0.5016,0.5107,-0.0031,0.0093,-0.0604,0
23052747,0.4836,0.5038,-0.5016,0.5106,-0.0118,-0.0055,-0.0551,0
23052914,0.4836,0.5038,-0.5016,0.5107,0.0007,-0.0044,-0.0625,0
23053414,0.4836,0.5038,-0.5016,0.5107,-0.0065,-0.0393,-0.0859,0
23053580,0.4836,0.5038,-0.5016,0.5106,0.0125,0.0185,-0.0261,0
23053747,0.4836,0.5038,-0.5016,0.5107,-0.0225,-0.0222,-0.0437,0
23053914,0.4836,0.5038,-0.5016,0.5106,0.0262,0.0236,-0.0890,0
23054080,0.4836,0.5038,-0.5016,0.5106,0.0078,0.0070,-0.0451,0
23054247,0.4836,0.5038,-0.5016,0.5107,-0.0064,-0.0140,-0.0500,0
23054414,0.4836,0.5038,-0.5016,0.5107,0.0043,-0.0065,-0.0432,0
23054580,0.4836,0.5038,-0.5016,0.5107,-0.0116,0.0150,-0.0554,0
23054747,0.4836,0.5038,-0.5016,0.5107,0.0051,0.0014,-0.0627,0
23054914,0.4836,0.5038,-0.5016,0.5107,0.0158,0.0064,-0.0617,0
23055080,0.4836,0.5038,-0.5016,0.5106,0.0015,0.0100,-0.0682,0
23055247,0.4836,0.5038,-0.5016,0.5106,0.0076,-0.0017,-0.0458,0
23055414,0.4836,0.5038,-0.5016,0.5106,-0.0016,-0.0361,-0.0505,0
23055580,0.4836,0.5038,-0.5016,0.5106,0.0002,-0.0017,-0.0555,0
23055747,0.4836,0.5038,-0.5016,0.5106,0.0006,-0.0098,-0.0364,0
23055914,0.4836,0.5038,-0.5016,0.5106,-0.0212,0.0306,-0.0623,0
23056080,0.4836,0.5037,-0.5016,0.5106,0.0231,-0.0315,-0.0952,0
23056247,0.4836,0.5038,-0.5016,0.5106,0.0087,0.0205,-0.0515,0
23056414,0.4836,0.5038,-0.5016,0.5107,0.0069,-0.0307,-0.0405,0
23056580,0.4835,0.5038,-0.5016,0.5107,0.0170,0.0087,-0.0706,0
23056747,0.4836,0.5038,-0.5016,0.5107,-0.0245,-0.0011,-0.0557,0
23056914,0.4835,0.5038,-0.5016,0.5107,0.0037,0.0309,-0.0528,0
23057080,0.4836,0.5038,-0.5016,0.5107,-0.0023,-0.0235,-0.0538,0
23057247,0.4835,0.5038,-0.5016,0.5106,-0.0194,0.0158,-0.0485,0
23057414,0.4835,0.5038,-0.5016,0.5107,0.0236,-0.0095,-0.0868,0
23057581,0.4836,0.5037,-0.5017,0.5106,-0.0042,-0.0350,-0.0344,0
23057747,0.4836,0.5037,-0.5016,0.5106,-0.0178,-0.0260,0.0103,0
23057914,0.4836,0.5037,-0.5016,0.5106,0.0159,0.0100,-0.1047,0
23058081,0.4836,0.5037,-0.5016,0.5107,0.0055,0.0046,-0.0633,0
23058247,0.4836,0.5037,-0.5016,0.5106,-0.0128,-0.0004,-0.0412,0
23058414,0.4836,0.5037,-0.5016,0.5107,-0.0075,0.0066,-0.0551,0
23058581,0.4836,0.5037,-0.5016,0.5107,0.0049,-0.0228,-0.0530,0
23058747,0.4836,0.5037,-0.5016,0.5107,0.0165,0.0088,-0.0614,0
23059081,0.4836,0.5037,-0.5016,0.5107,-0.0152,-0.0024,-0.0483,0
23059247,0.4836,0.5037,-0.5016,0.5107,-0.0036,-0.0075,-0.0695,0
23059414,0.4836,0.5037,-0.5016,0.5107,-0.0095,0.0066,-0.0617,0
23059581,0.4836,0.5037,-0.5016,0.5107,0.0075,-0.0087,-0.0572,0
23059747,0.4836,0.5037,-0.5016,0.5107,0.0004,0.0055,-0.0621,0
23059914,0.4836,0.5037,-0.5016,0.5107,-0.0138,-0.0106,-0.0682,0
23060081,0.4836,0.5037,-0.5016,0.5107,0.0002,0.0087,-0.0373,0
23060247,0.4836,0.5037,-0.5016,0.5107,0.0088,-0.0090,-0.0752,0
23060414,0.4836,0.5037,-0.5016,0.5107,0.0020,-0.0035,-0.0724,0
23060581,0.4836,0.5037,-0.5016,0.5107,0.0031,-0.0115,-0.0493,0
23060747,0.4836,0.5037,-0.5016,0.5107,-0.0066,0.0140,-0.0613,0
23060914,0.4836,0.5037,-0.5016,0.5107,-0.0017,-0.0045,-0.0615,0
23061081,0.4836,0.5037,-0.5016,0.5107,-0.0016,-0.0169,-0.0646,0
23061247,0.4836,0.5037,-0.5016,0.5107,-0.0134,0.0120,-0.0535,0
23061414,0.4836,0.5037,-0.5016,0.5107,0.0021,0.0049,-0.0540,0
23061581,0.4836,0.5037,-0.5016,0.5107,0.0016,0.0010,-0.0680,0
23061747,0.4835,0.5037,-0.5016,0.5107,0.0127,-0.0029,-0.0484,0
23061914,0.4835,0.5037,-0.5016,0.5107,-0.0079,-0.0227,-0.0710,0
23062081,0.4835,0.5037,-0.5016,0.5107,0.0022,-0.0244,-0.0539,0
23062247,0.4835,0.5037,-0.5016,0.5107,-0.0137,0.0012,-0.0579,0
23062414,0.4835,0.5037,-0.5016,0.5107,-0.0032,0.0153,-0.0513,0
23062581,0.4835,0.5037,-0.5016,0.5107,-0.0137,-0.0008,-0.0508,0
23062747,0.4835,0.5037,-0.5016,0.5107,-0.0059,0.0087,-0.0672,0
23062914,0.4835,0.5038,-0.5016,0.5107,-0.0020,0.0080,-0.0540,0
23063081,0.4835,0.5038,-0.5016,0.5107,0.0052,-0.0018,-0.0603,0
23063247,0.4835,0.5038,-0.5016,0.5107,-0.0069,0.0046,-0.0509,0
23063581,0.4835,0.5038,-0.5016,0.5107,0.0018,0.0002,-0.0506,0
23063747,0.4835,0.5038,-0.5016,0.5107,-0.0059,-0.0338,-0.0478,0
23063914,0.4835,0.5038,-0.5016,0.5107,-0.0051,0.0241,-0.0598,0
23064414,0.4835,0.5038,-0.5016,0.5107,-0.0090,-0.0334,-0.0479,0
23064581,0.4835,0.5038,-0.5016,0.5107,-0.0023,0.0127,-0.0583,0
23064747,0.4835,0.5038,-0.5016,0.5107,0.0028,-0.0070,-0.0650,0
23065081,0.4835,0.5038,-0.5016,0.5107,-0.0010,0.0110,-0.0518,0
23065247,0.4835,0.5038,-0.5016,0.5107,-0.0072,0.0079,-0.0479,0
23065414,0.4835,0.5038,-0.5016,0.5107,-0.0049,0.0066,-0.0454,0
23065747,0.4835,0.5038,-0.5016,0.5107,0.0053,-0.0017,-0.0552,0
23065914,0.4835,0.5038,-0.5016,0.5107,-0.0128,0.0074,-0.0493,0
23066081,0.4835,0.5038,-0.5016,0.5107,0.0108,0.0155,-0.0574,0
23066247,0.4835,0.5038,-0.5016,0.5107,-0.0042,-0.0021,-0.0642,0
23066414,0.4835,0.5038,-0.5016,0.5107,0.0115,0.0308,-0.0673,0
23066581,0.4835,0.5038,-0.5016,0.5107,-0.0019,0.0152,-0.0465,0
23066747,0.4835,0.5038,-0.5016,0.5107,-0.0061,-0.0016,-0.0634,0
23066914,0.4835,0.5038,-0.5016,0.5107,-0.0095,-0.0217,-0.0547,0
23067081,0.4835,0.5038,-0.5016,0.5107,-0.0122,0.0172,-0.0487,0
23067247,0.4835,0.5038,-0.5016,0.5107,-0.0072,-0.0111,-0.0661,0
23067414,0.4835,0.5038,-0.5016,0.5107,-0.0248,0.0044,-0.0507,0
23067581,0.4835,0.5038,-0.5016,0.5107,-0.0017,-0.0266,-0.0680,0
23068081,0.4835,0.5038,-0.5016,0.5107,-0.0156,0.0119,-0.0412,0
23068247,0.4835,0.5038,-0.5016,0.5107,-0.0094,-0.0155,-0.0522,0
23068414,0.4835,0.5038,-0.5016,0.5107,0.0057,0.0192,-0.0645,0
23068747,0.4835,0.5038,-0.5016,0.5107,0.0036,0.0065,-0.0368,0
23068914,0.4835,0.5038,-0.5016,0.5107,-0.0063,-0.0437,-0.0924,0
23069081,0.4835,0.5038,-0.5016,0.5107,-0.0030,0.0348,-0.0411,0
23069581,0.4835,0.5038,-0.5016,0.5107,-0.0074,-0.0364,-0.0766,0
23069747,0.4834,0.5038,-0.5016,0.5107,-0.0171,0.0107,-0.0528,0
23069914,0.4834,0.5038,-0.5016,0.5107,-0.0076,-0.0356,-0.0560,0
23070247,0.4834,0.5038,-0.5016,0.5108,-0.0114,-0.0377,-0.0543,0
23070414,0.4834,0.5038,-0.5016,0.5107,0.0176,0.0317,-0.0407,0
23070581,0.4835,0.5038,-0.5016,0.5108,-0.0024,-0.0383,-0.0670,0
23070747
23070914
23071081
23071247
23071414
23071581
23071747
