DeviceTag: Xsens DOT3,FirmwareVersion: 2.2.1,AppVersion: 2022.2.0,SyncStatus: Unknown (Synced/Un-synced),OutputRate: 60,FilterProfile: Unknown,Measurement Mode: Sensor fusion Mode - Extended (Quaternion),StartTime: 2023-06-15 11:41:08.464,© Movella Technologies B.V. 2005-2023
SampleTimeFine,Quat_W,Quat_X,Quat_Y,Quat_Z,FreeAcc_X,FreeAcc_Y,FreeAcc_Z,Status
5657188,0.9881,-0.0089,0.0057,0.1536,0.0094,-0.0049,0.2154,0
5657354,0.9881,-0.0084,0.0055,0.1536,0.0047,-0.0111,0.2059,0
5657521,0.9880,-0.0079,0.0053,0.1539,0.0029,-0.0158,0.2065,0
5657688,0.9880,-0.0075,0.0052,0.1540,-0.0091,-0.0423,0.1665,0
5657854,0.9880,-0.0071,0.0052,0.1542,-0.0025,-0.0412,0.1903,0
5658021,0.9880,-0.0068,0.0052,0.1543,0.0029,-0.0637,0.1854,0
5658188,0.9880,-0.0065,0.0051,0.1544,-0.0036,-0.0576,0.1826,0
5658354,0.9880,-0.0061,0.0051,0.1544,-0.0067,-0.0530,0.2193,0
5658521,0.9880,-0.0058,0.0050,0.1546,-0.0175,-0.0722,0.2056,0
5658688,0.9879,-0.0054,0.0050,0.1546,0.0046,-0.0798,0.1853,0
5658854,0.9879,-0.0051,0.0049,0.1547,0.0063,-0.0795,0.1901,0
5659021,0.9879,-0.0047,0.0049,0.1549,0.0122,-0.1028,0.2039,0
5659188,0.9879,-0.0044,0.0048,0.1550,-0.0011,-0.1140,0.2050,0
5659354,0.9879,-0.0040,0.0048,0.1550,0.0005,-0.1092,0.2010,0
5659521,0.9879,-0.0036,0.0047,0.1550,-0.0041,-0.1149,0.1793,0
5659688,0.9879,-0.0033,0.0047,0.1552,0.0004,-0.1232,0.2021,0
5659854,0.9879,-0.0029,0.0046,0.1552,0.0041,-0.1320,0.2188,0
5660021,0.9879,-0.0025,0.0046,0.1553,-0.0001,-0.1586,0.1764,0
5660188,0.9878,-0.0022,0.0045,0.1554,0.0157,-0.1516,0.2051,0
5660354,0.9878,-0.0018,0.0045,0.1555,-0.0022,-0.1601,0.1943,0
5660521,0.9878,-0.0014,0.0044,0.1555,0.0098,-0.1573,0.2117,0
5660688,0.9878,-0.0010,0.0044,0.1555,-0.0019,-0.1717,0.1970,0
5660854,0.9878,-0.0007,0.0043,0.1556,-0.0042,-0.1824,0.1969,0
5661021,0.9878,-0.0003,0.0042,0.1557,0.0105,-0.1952,0.1813,0
5661188,0.9878,0.0001,0.0042,0.1558,0.0255,-0.1820,0.2263,0
5661354,0.9878,0.0004,0.0041,0.1558,0.0098,-0.1879,0.2084,0
5661521,0.9878,0.0008,0.0041,0.1559,-0.0135,-0.1946,0.1740,0
5661688,0.9877,0.0012,0.0040,0.1560,-0.0114,-0.2085,0.2111,0
5661854,0.9877,0.0016,0.0039,0.1561,0.0160,-0.2326,0.2147,0
5662021,0.9877,0.0020,0.0039,0.1561,0.0143,-0.2078,0.1905,0
5662188,0.9877,0.0023,0.0038,0.1562,0.0073,-0.2287,0.1911,0
5662354,0.9877,0.0027,0.0037,0.1563,-0.0121,-0.2612,0.1939,0
5662521,0.9877,0.0031,0.0037,0.1563,0.0018,-0.2648,0.1977,0
5662688,0.9877,0.0035,0.0036,0.1564,0.0135,-0.2434,0.2026,0
5662854,0.9877,0.0039,0.0036,0.1564,-0.0006,-0.2660,0.1935,0
5663021,0.9877,0.0043,0.0035,0.1565,0.0041,-0.2676,0.1998,0
5663188,0.9876,0.0046,0.0034,0.1566,-0.0074,-0.2826,0.2124,0
5663354,0.9876,0.0050,0.0034,0.1566,0.0038,-0.2904,0.2300,0
5663521,0.9876,0.0054,0.0033,0.1567,-0.0015,-0.2851,0.1836,0
5663688,0.9876,0.0058,0.0033,0.1568,-0.0093,-0.3245,0.2101,0
5663854,0.9876,0.0062,0.0032,0.1568,-0.0113,-0.3079,0.1850,0
5664021,0.9876,0.0065,0.0031,0.1569,-0.0110,-0.3355,0.2139,0
5664188,0.9876,0.0069,0.0031,0.1569,-0.0032,-0.3211,0.2051,0
5664354,0.9876,0.0073,0.0030,0.1569,0.0100,-0.3384,0.1733,0
5664521,0.9876,0.0077,0.0030,0.1570,0.0165,-0.3444,0.2287,0
5664688,0.9876,0.0081,0.0029,0.1571,0.0023,-0.3560,0.2232,0
5664854,0.9875,0.0084,0.0028,0.1571,0.0095,-0.3670,0.2087,0
5665021,0.9875,0.0088,0.0028,0.1571,-0.0005,-0.3567,0.1924,0
5665188,0.9875,0.0092,0.0027,0.1572,-0.0092,-0.3627,0.1970,0
5665354,0.9875,0.0096,0.0027,0.1572,0.0088,-0.3765,0.2065,0
5665521,0.9875,0.0099,0.0026,0.1573,0.0039,-0.3763,0.1953,0
5665688,0.9875,0.0103,0.0025,0.1573,0.0038,-0.3961,0.2190,0
5665854,0.9875,0.0107,0.0025,0.1573,0.0010,-0.4114,0.2064,0
5666021,0.9875,0.0110,0.0024,0.1574,0.0053,-0.4039,0.1827,0
5666188,0.9875,0.0114,0.0024,0.1574,0.0052,-0.4231,0.1960,0
5666354,0.9874,0.0118,0.0023,0.1575,-0.0024,-0.4328,0.2048,0
5666521,0.9874,0.0121,0.0022,0.1575,-0.0050,-0.4416,0.1928,0
5666688,0.9874,0.0125,0.0022,0.1576,-0.0034,-0.4483,0.1894,0
5666854,0.9874,0.0129,0.0021,0.1576,0.0059,-0.4546,0.1950,0
5667021,0.9874,0.0132,0.0021,0.1577,-0.0008,-0.4406,0.1975,0
5667188,0.9874,0.0136,0.0020,0.1577,0.0148,-0.4591,0.1889,0
5667354,0.9874,0.0140,0.0020,0.1578,-0.0030,-0.4708,0.1817,0
5667521,0.9874,0.0143,0.0019,0.1578,-0.0053,-0.4884,0.1853,0
5667688,0.9874,0.0147,0.0019,0.1578,0.0104,-0.4953,0.1903,0
5667854,0.9873,0.0150,0.0018,0.1579,0.0046,-0.5088,0.1828,0
5668021,0.9873,0.0154,0.0017,0.1579,-0.0077,-0.4913,0.1755,0
5668188,0.9873,0.0157,0.0017,0.1580,0.0136,-0.4939,0.1634,0
5668354,0.9873,0.0161,0.0016,0.1580,-0.0170,-0.5201,0.1974,0
5668521,0.9873,0.0164,0.0016,0.1580,0.0102,-0.5087,0.1890,0
5668688,0.9873,0.0167,0.0015,0.1581,0.0007,-0.5167,0.1914,0
5668854,0.9873,0.0171,0.0015,0.1581,-0.0040,-0.5575,0.1793,0
5669021,0.9873,0.0174,0.0014,0.1582,-0.0056,-0.5629,0.1869,0
5669188,0.9872,0.0177,0.0014,0.1582,0.0137,-0.5272,0.2069,0
5669354,0.9872,0.0181,0.0013,0.1583,0.0044,-0.5356,0.1848,0
5669521,0.9872,0.0184,0.0013,0.1583,0.0029,-0.5786,0.1856,0
5669688,0.9872,0.0187,0.0012,0.1583,-0.0061,-0.5780,0.1931,0
5669854,0.9872,0.0191,0.0012,0.1584,-0.0008,-0.5704,0.1917,0
5670021,0.9872,0.0194,0.0011,0.1584,0.0105,-0.5852,0.1970,0
5670188,0.9872,0.0197,0.0011,0.1585,0.0042,-0.5877,0.1696,0
5670354,0.9872,0.0200,0.0010,0.1585,-0.0132,-0.5935,0.2051,0
5670521,0.9871,0.0203,0.0010,0.1585,-0.0143,-0.5975,0.1876,0
5670688,0.9871,0.0206,0.0009,0.1586,-0.0101,-0.5952,0.1983,0
5670855,0.9871,0.0209,0.0009,0.1586,0.0100,-0.6204,0.2087,0
5671021,0.9871,0.0213,0.0008,0.1586,0.0236,-0.6246,0.1961,0
5671188,0.9871,0.0216,0.0008,0.1586,0.0035,-0.6336,0.1696,0
5671355,0.9871,0.0219,0.0008,0.1587,0.0133,-0.6196,0.1883,0
5671521,0.9871,0.0222,0.0007,0.1587,0.0072,-0.6219,0.1734,0
5671688,0.9871,0.0224,0.0007,0.1587,-0.0339,-0.6882,0.1845,0
5671855,0.9871,0.0227,0.0006,0.1587,0.0140,-0.6510,0.1766,0
5672021,0.9870,0.0230,0.0006,0.1588,0.0279,-0.6307,0.1784,0
5672188,0.9870,0.0233,0.0005,0.1588,0.0156,-0.6634,0.2037,0
5672355,0.9870,0.0236,0.0005,0.1588,-0.0150,-0.6852,0.1252,0
5672521,0.9870,0.0238,0.0004,0.1588,0.0063,-0.6729,0.1750,0
5672688,0.9870,0.0241,0.0004,0.1588,-0.0097,-0.6822,0.2152,0
5672855,0.9870,0.0244,0.0004,0.1589,-0.0173,-0.6945,0.1853,0
5673021,0.9870,0.0246,0.0003,0.1589,0.0278,-0.6578,0.1776,0
5673188,0.9870,0.0249,0.0003,0.1589,0.0171,-0.6875,0.1772,0
5673355,0.9870,0.0252,0.0002,0.1589,-0.0247,-0.7214,0.1648,0
5673521,0.9870,0.0254,0.0002,0.1589,-0.0009,-0.7266,0.1481,0
5673688,0.9870,0.0257,0.0001,0.1589,0.0308,-0.6895,0.2102,0
5673855,0.9869,0.0259,0.0001,0.1590,0.0017,-0.7097,0.2197,0
5674021,0.9869,0.0261,0.0001,0.1590,-0.0008,-0.7456,0.1595,0
5674188,0.9869,0.0264,0.0000,0.1590,0.0090,-0.7211,0.1560,0
5674355,0.9869,0.0266,-0.0000,0.1590,0.0106,-0.7316,0.1942,0
5674521,0.9869,0.0268,-0.0001,0.1590,0.0048,-0.7334,0.1566,0
5674688,0.9869,0.0270,-0.0001,0.1590,0.0088,-0.7447,0.1713,0
5674855,0.9869,0.0273,-0.0001,0.1590,-0.0056,-0.7377,0.1783,0
5675021,0.9869,0.0275,-0.0002,0.1590,-0.0099,-0.7645,0.1748,0
5675188,0.9869,0.0277,-0.0002,0.1590,0.0063,-0.7590,0.1556,0
5675355,0.9869,0.0279,-0.0002,0.1591,0.0343,-0.7537,0.2273,0
5675521,0.9869,0.0281,-0.0003,0.1591,-0.0093,-0.7623,0.1715,0
5675688,0.9869,0.0283,-0.0003,0.1591,-0.0177,-0.7699,0.1523,0
5675855,0.9868,0.0285,-0.0003,0.1591,-0.0033,-0.7516,0.1756,0
5676021,0.9868,0.0286,-0.0004,0.1592,0.0124,-0.7537,0.1694,0
5676188,0.9868,0.0288,-0.0004,0.1592,0.0037,-0.7870,0.1582,0
5676355,0.9868,0.0290,-0.0004,0.1592,-0.0023,-0.7898,0.1874,0
5676521,0.9868,0.0292,-0.0004,0.1592,0.0054,-0.7867,0.1682,0
5676688,0.9868,0.0294,-0.0005,0.1593,-0.0118,-0.7747,0.1566,0
5676855,0.9868,0.0295,-0.0005,0.1593,-0.0075,-0.7719,0.1651,0
5677021,0.9868,0.0297,-0.0005,0.1593,0.0133,-0.7736,0.1853,0
5677355,0.9868,0.0300,-0.0006,0.1594,-0.0097,-0.8011,0.1552,0
5677521,0.9868,0.0301,-0.0005,0.1594,-0.2201,-0.8764,0.0944,0
5677688,0.9871,0.0280,0.0086,0.1574,-3.1864,-0.5629,0.5577,0
5678188,0.9882,0.0313,0.0007,0.1497,-2.1069,-2.6949,0.0718,0
5678355,0.9894,0.0306,-0.0003,0.1419,0.6812,-2.3867,0.3450,0
5678521,0.9900,0.0297,-0.0010,0.1380,4.4729,3.3590,0.2645,0
5678855,0.9909,0.0305,-0.0014,0.1314,-1.5050,-2.0238,0.4796,0
5679021,0.9919,0.0317,-0.0074,0.1231,-2.1781,-2.5753,1.7658,0
5679188,0.9928,0.0345,-0.0262,0.1120,-0.0742,-1.5909,2.9937,0
5679521,0.9911,0.0411,-0.0888,0.0907,0.5332,-0.4284,0.0341,0
5679688,0.9885,0.0434,-0.1186,0.0832,0.6059,0.7104,-0.7552,0
5679855,0.9856,0.0452,-0.1431,0.0781,0.2626,0.4300,-0.6825,0
5680021,0.9826,0.0465,-0.1633,0.0748,0.1960,-0.3520,-0.4050,0
5680188,0.9797,0.0477,-0.1804,0.0727,0.3024,-0.8191,-0.4311,0
5680355,0.9744,0.0507,-0.2068,0.0727,-4.0183,-2.0537,4.7749,0
5681021,0.8624,0.0752,-0.4981,0.0507,-2.8673,-2.8360,-2.6314,0
5681188,0.8001,0.0823,-0.5926,0.0430,-0.5481,-1.1347,-4.1079,0
5681355,0.7389,0.0869,-0.6671,0.0379,2.8927,-0.0906,-3.6367,0
5681521,0.6959,0.0902,-0.7117,0.0346,1.4185,1.4018,-1.9003,0
5681688,0.6736,0.0915,-0.7328,0.0303,0.2851,1.6190,-0.8093,0
5681855,0.6626,0.0914,-0.7429,0.0260,0.9057,0.8473,-0.6418,0
5682021,0.6554,0.0907,-0.7494,0.0243,1.3639,-0.1501,2.7680,0
5682188,0.6493,0.0918,-0.7545,0.0248,3.0233,-1.0073,0.3826,0
5682355,0.6539,0.0941,-0.7502,0.0282,3.2039,-0.8935,0.3455,0
5682521,0.6653,0.0961,-0.7397,0.0326,0.9429,-0.5268,0.0088,0
5682688,0.6836,0.0964,-0.7225,0.0371,0.9512,-0.4160,-0.1419,0
5682855,0.7095,0.0954,-0.6970,0.0418,-0.8830,0.2288,1.0039,0
5683021,0.7207,0.0947,-0.6853,0.0443,0.6650,-0.5868,-0.0351,0
5683188,0.7365,0.0931,-0.6683,0.0468,0.7026,-0.6716,0.2225,0
5683355,0.7603,0.0905,-0.6413,0.0505,2.7589,-0.5117,-0.4210,0
5683688,0.8286,0.0829,-0.5501,0.0627,2.6831,-0.5305,-2.3312,0
5683855,0.8680,0.0773,-0.4853,0.0708,1.5930,-0.7477,-3.2054,0
5684021,0.9057,0.0700,-0.4106,0.0789,0.4651,-0.9690,-2.8381,0
5684188,0.9347,0.0621,-0.3397,0.0838,-3.8547,-2.7118,1.7661,0
5684355,0.9512,0.0564,-0.2914,0.0844,-4.0610,-3.1446,2.2506,0
5684521,0.9600,0.0513,-0.2627,0.0816,-3.0309,-2.3643,2.0785,0
5684688,0.9662,0.0474,-0.2412,0.0774,-1.0411,-0.6855,0.8123,0
5684855,0.9702,0.0445,-0.2269,0.0720,-1.8662,-1.4251,2.0334,0
5685188,0.9685,0.0425,-0.2388,0.0570,-1.9817,-1.0434,3.0291,0
5685355,0.9611,0.0435,-0.2681,0.0495,-0.3886,-0.6893,2.1802,0
5685521,0.9494,0.0456,-0.3074,0.0445,-0.3851,-1.4003,1.2585,0
5685688,0.9318,0.0483,-0.3576,0.0402,-2.3961,-2.0799,1.3121,0
5685855,0.9033,0.0516,-0.4246,0.0340,-4.0065,-1.8755,1.0690,0
5686021,0.8601,0.0547,-0.5065,0.0258,-3.5461,-1.7406,-1.3171,0
5686188,0.8038,0.0563,-0.5920,0.0167,-2.4622,-1.6837,-4.8535,0
5686355,0.7403,0.0557,-0.6699,0.0081,-0.1513,-0.7610,-2.9316,0
5686521,0.6849,0.0554,-0.7265,0.0023,3.1408,0.6532,-1.7799,0
5686688,0.6498,0.0559,-0.7580,-0.0017,0.6033,2.1895,1.1296,0
5686855,0.6172,0.0548,-0.7849,-0.0045,-3.8313,1.0538,-0.9647,0
5687021,0.5775,0.0545,-0.8145,-0.0072,-1.6492,-0.8152,-1.6746,0
5687188,0.5380,0.0542,-0.8412,-0.0095,1.9563,-0.2600,0.7345,0
5687355,0.5253,0.0546,-0.8491,-0.0096,4.4683,0.1839,2.6244,0
5688188,0.6167,0.0587,-0.7850,0.0031,5.2968,0.8994,-0.0722,0
5688355,0.6888,0.0578,-0.7225,0.0101,5.7914,0.8763,-3.5244,0
5688522,0.7543,0.0560,-0.6539,0.0174,-1.4562,-1.1369,1.1810,0
5688688,0.8053,0.0536,-0.5899,0.0239,0.7961,-1.3364,-3.3838,0
5688855,0.8551,0.0500,-0.5152,0.0301,2.3291,-1.8069,-4.3747,0
5689022,0.9024,0.0454,-0.4270,0.0372,1.3692,-1.6729,-4.4754,0
5689355,0.9634,0.0274,-0.2634,0.0415,-7.3236,-2.2086,7.8463,0
5689522,0.9701,0.0218,-0.2391,0.0344,-5.0191,-2.7944,2.2256,0
5689688,0.9704,0.0195,-0.2395,0.0251,-1.5026,-1.2767,1.1904,0
5689855,0.9657,0.0204,-0.2581,0.0182,-0.5897,-0.9911,1.4970,0
5690022,0.9549,0.0239,-0.2957,0.0130,-2.0762,-1.4131,0.8976,0
5690188,0.9390,0.0278,-0.3428,0.0084,-1.8003,-0.4225,3.2317,0
5690355,0.9231,0.0280,-0.3836,0.0048,-3.1200,1.9503,0.3470,0
5690522,0.9009,0.0269,-0.4333,-0.0019,-5.1656,-0.1051,0.9191,0
5690688,0.8699,0.0251,-0.4924,-0.0092,-2.1155,-1.0904,-0.7320,0
5690855,0.8321,0.0235,-0.5539,-0.0143,-1.0463,-1.0707,-1.8704,0
5691022,0.7896,0.0231,-0.6129,-0.0167,-0.2285,-1.0337,-2.7349,0
5691188,0.7430,0.0244,-0.6686,-0.0167,-1.1958,-0.2820,-2.5962,0
5691522,0.6628,0.0271,-0.7482,-0.0160,0.3305,0.2820,-2.2558,0
5691688,0.6281,0.0272,-0.7774,-0.0165,0.0957,-0.8605,-0.9198,0
5691855,0.5958,0.0272,-0.8025,-0.0170,0.7345,-0.8808,-0.6753,0
5692022,0.5662,0.0269,-0.8236,-0.0176,1.7964,-0.7628,-0.0016,0
5692188,0.5472,0.0276,-0.8364,-0.0172,2.6704,-0.6634,1.2209,0
5692355,0.5430,0.0288,-0.8391,-0.0162,2.5610,0.0596,1.5775,0
5692522,0.5593,0.0303,-0.8283,-0.0142,4.4860,0.7400,3.2029,0
5692688,0.6128,0.0323,-0.7895,-0.0105,6.9361,0.5036,1.2276,0
5692855,0.6973,0.0354,-0.7159,-0.0031,7.7602,1.5728,-5.3360,0
5693022,0.7663,0.0379,-0.6413,0.0062,-2.2079,0.0378,1.1400,0
5693188,0.8216,0.0384,-0.5686,0.0154,1.1680,-0.9023,-3.6140,0
5693355,0.8702,0.0371,-0.4908,0.0230,0.2709,-1.9328,-4.0878,0
5693522,0.9110,0.0330,-0.4102,0.0277,-3.6048,-2.7449,-0.7330,0
5693688,0.9392,0.0245,-0.3413,0.0273,-5.4410,-0.6467,5.6187,0
5693855,0.9490,0.0187,-0.3142,0.0211,-3.4985,-2.6828,2.4575,0
5694022,0.9487,0.0166,-0.3154,0.0136,-0.1018,-2.7039,0.6932,0
5694188,0.9451,0.0168,-0.3263,0.0081,-1.9131,-0.9330,-2.4637,0
5694522,0.9490,0.0127,-0.3151,0.0026,-1.4223,0.8726,-0.3862,0
5694688,0.9534,0.0114,-0.3014,-0.0005,-0.9994,0.2712,0.4431,0
5694855,0.9574,0.0115,-0.2886,-0.0010,-0.1480,-0.8114,0.4818,0
5695022,0.9598,0.0115,-0.2806,-0.0013,-0.8501,-0.7890,0.9058,0
5695188,0.9607,0.0115,-0.2774,-0.0019,-1.2801,-0.5134,0.9790,0
5695355,0.9610,0.0113,-0.2762,-0.0029,-0.1984,-0.3988,0.2600,0
5695688,0.9656,0.0114,-0.2598,-0.0066,1.4917,-0.8361,-1.4987,0
5695855,0.9713,0.0122,-0.2372,-0.0120,1.5946,0.1766,-1.4933,0
5696022,0.9796,0.0117,-0.2001,-0.0116,1.4520,-0.0250,-2.7155,0
5696188,0.9891,0.0115,-0.1461,-0.0118,0.0041,-0.1952,-2.7301,0
5696355,0.9967,0.0115,-0.0799,-0.0127,-0.9898,-0.5853,-2.1298,0
5696522,0.9998,0.0114,-0.0023,-0.0136,-1.2543,-0.8946,-2.5447,0
5696688,0.9998,0.0120,0.0072,-0.0128,-0.9803,6.2359,-3.6538,0
5697188,0.9998,0.0118,0.0072,-0.0131,-0.0833,-0.4051,0.2288,0
5697355,0.9998,0.0118,0.0072,-0.0134,0.0387,-0.4049,0.1907,0
5697688,0.9998,0.0117,0.0072,-0.0139,0.0158,-0.4686,0.2436,0
5697855,0.9998,0.0116,0.0074,-0.0142,0.0992,-0.3231,0.2536,0
5698022,0.9998,0.0116,0.0076,-0.0144,-0.0541,-0.4324,0.1703,0
5698188,0.9998,0.0115,0.0077,-0.0146,0.0023,-0.4149,0.1674,0
5698355,0.9998,0.0115,0.0077,-0.0148,-0.0035,-0.4056,0.2388,0
5698522,0.9998,0.0115,0.0078,-0.0151,0.0263,-0.3892,0.1872,0
5698688,0.9998,0.0114,0.0078,-0.0153,0.0235,-0.4128,0.1757,0
5699188,0.9998,0.0113,0.0080,-0.0159,0.0327,-0.3853,0.1809,0
5699355,0.9998,0.0113,0.0081,-0.0161,0.0219,-0.4080,0.2556,0
5700188,0.9998,0.0111,0.0084,-0.0171,0.0276,-0.3785,0.1749,0
5700355,0.9998,0.0111,0.0084,-0.0173,0.0201,-0.4158,0.1825,0
5700522,0.9997,0.0111,0.0085,-0.0175,0.0334,-0.4067,0.2153,0
5700688,0.9997,0.0111,0.0085,-0.0177,0.0226,-0.3737,0.1828,0
5700855,0.9997,0.0110,0.0086,-0.0179,0.0221,-0.4028,0.1845,0
5701022,0.9997,0.0110,0.0086,-0.0181,0.0373,-0.3973,0.2041,0
5701355,0.9997,0.0109,0.0087,-0.0184,0.0111,-0.3806,0.1956,0
5701522,0.9997,0.0109,0.0088,-0.0186,0.0109,-0.3844,0.1966,0
5701688,0.9997,0.0109,0.0088,-0.0187,0.0137,-0.3911,0.1872,0
5702188,0.9997,0.0108,0.0089,-0.0192,0.0403,-0.3818,0.1845,0
5702355,0.9997,0.0107,0.0090,-0.0194,0.0349,-0.3753,0.1920,0
5702522,0.9997,0.0107,0.0090,-0.0195,0.0135,-0.3939,0.2019,0
5702855,0.9997,0.0107,0.0091,-0.0198,0.0512,-0.3833,0.1984,0
5703022,0.9997,0.0106,0.0091,-0.0200,0.0354,-0.3895,0.2155,0
5703188,0.9997,0.0106,0.0092,-0.0201,0.0497,-0.3991,0.2110,0
5703522,0.9997,0.0105,0.0093,-0.0203,0.0299,-0.3726,0.2053,0
5703688,0.9997,0.0105,0.0093,-0.0205,0.0394,-0.3848,0.1825,0
5703855,0.9997,0.0105,0.0093,-0.0206,0.0534,-0.3738,0.2082,0
5704355,0.9997,0.0104,0.0094,-0.0209,0.0267,-0.3792,0.1582,0
5704522,0.9997,0.0103,0.0094,-0.0211,0.0482,-0.3803,0.2247,0
5704689,0.9997,0.0103,0.0095,-0.0212,0.0257,-0.3791,0.1935,0
5705022,0.9997,0.0102,0.0095,-0.0214,0.0423,-0.3824,0.2046,0
5705189,0.9997,0.0102,0.0096,-0.0215,0.0423,-0.3874,0.2307,0
5705355,0.9997,0.0101,0.0096,-0.0216,0.0510,-0.3793,0.1978,0
5705522,0.9997,0.0101,0.0096,-0.0217,0.0430,-0.3800,0.2164,0
5705689,0.9997,0.0101,0.0096,-0.0218,0.0380,-0.3617,0.2204,0
5705855,0.9997,0.0100,0.0097,-0.0219,0.0289,-0.3810,0.1871,0
5706522,0.9997,0.0099,0.0098,-0.0224,0.0329,-0.3800,0.2231,0
5706689,0.9997,0.0099,0.0098,-0.0225,0.0217,-0.3775,0.2031,0
5706855,0.9996,0.0098,0.0098,-0.0226,0.0461,-0.3406,0.1878,0
5707022,0.9996,0.0098,0.0098,-0.0226,0.0511,-0.3704,0.2013,0
5707189,0.9996,0.0098,0.0099,-0.0227,0.0561,-0.4034,0.2103,0
5707689,0.9996,0.0096,0.0099,-0.0230,0.0256,-0.3676,0.2287,0
5707855,0.9996,0.0096,0.0100,-0.0230,0.0290,-0.3838,0.1747,0
5708522,0.9996,0.0095,0.0100,-0.0234,0.0472,-0.3760,0.1846,0
5708689,0.9996,0.0094,0.0100,-0.0235,0.0584,-0.3494,0.2409,0
5708855,0.9996,0.0094,0.0100,-0.0235,0.0528,-0.3538,0.1903,0
5710022,0.9996,0.0092,0.0101,-0.0240,0.0461,-0.3724,0.1775,0
5710689,0.9996,0.0090,0.0101,-0.0243,0.0336,-0.3658,0.1788,0
5710855,0.9996,0.0090,0.0102,-0.0244,0.0485,-0.3446,0.2040,0
5711189,0.9996,0.0089,0.0102,-0.0245,0.0682,-0.3575,0.1929,0
5711855,0.9996,0.0087,0.0102,-0.0247,0.0453,-0.3442,0.2283,0
5712022,0.9996,0.0087,0.0102,-0.0248,0.0442,-0.3480,0.2041,0
5712189,0.9996,0.0086,0.0102,-0.0248,0.0606,-0.3715,0.1954,0
5712355,0.9996,0.0086,0.0102,-0.0249,0.0696,-0.3599,0.2003,0
5712522,0.9996,0.0086,0.0102,-0.0249,0.0701,-0.3562,0.1821,0
5712689,0.9996,0.0085,0.0102,-0.0250,0.0617,-0.3405,0.2175,0
5712855,0.9996,0.0085,0.0102,-0.0250,0.0438,-0.3560,0.2093,0
5713022,0.9996,0.0084,0.0102,-0.0251,0.0564,-0.3504,0.1960,0
5713355,0.9996,0.0084,0.0102,-0.0252,0.0620,-0.3701,0.1946,0
5713522,0.9996,0.0083,0.0102,-0.0252,0.0551,-0.3575,0.2165,0
5714022,0.9996,0.0082,0.0102,-0.0254,0.0326,-0.3631,0.1810,0
5714189,0.9996,0.0081,0.0103,-0.0254,0.1934,-0.3508,0.2249,0
5714355,0.9996,0.0081,0.0102,-0.0255,0.0175,-0.3636,0.1719,0
5714522,0.9996,0.0081,0.0102,-0.0255,0.0148,-0.3785,0.2576,0
5714689,0.9996,0.0080,0.0102,-0.0256,0.0576,-0.2850,0.1614,0
5714855,0.9996,0.0080,0.0102,-0.0256,0.0041,-0.3152,0.1714,0
5715022,0.9996,0.0079,0.0102,-0.0257,0.0174,-0.4099,0.2261,0
5715189,0.9996,0.0079,0.0102,-0.0257,0.1371,-0.3582,0.2007,0
5716355,0.9996,0.0076,0.0102,-0.0260,0.1273,-0.3253,0.1867,0
5716522,0.9996,0.0076,0.0102,-0.0260,0.0490,-0.2898,0.2258,0
5716689,0.9996,0.0075,0.0103,-0.0261,-0.0333,-0.3126,0.1916,0
5717022,0.9996,0.0075,0.0103,-0.0261,0.0933,-0.3346,0.2042,0
5717189,0.9996,0.0074,0.0102,-0.0262,0.0964,-0.3205,0.2266,0
5717355,0.9996,0.0074,0.0102,-0.0262,0.0657,-0.3337,0.1649,0
5717855,0.9996,0.0072,0.0102,-0.0263,0.0129,-0.2904,0.1813,0
5718022,0.9996,0.0072,0.0102,-0.0263,0.0993,-0.3136,0.1896,0
5718189,0.9996,0.0072,0.0102,-0.0264,0.0895,-0.3656,0.2317,0
5718522,0.9996,0.0071,0.0102,-0.0265,0.0308,-0.2943,0.1657,0
5718689,0.9996,0.0070,0.0102,-0.0265,0.0490,-0.2910,0.2177,0
5718855,0.9996,0.0070,0.0102,-0.0265,0.0494,-0.3245,0.2201,0
5719022,0.9996,0.0070,0.0102,-0.0266,0.0340,-0.3301,0.1731,0
5719189,0.9996,0.0069,0.0102,-0.0266,0.0779,-0.3437,0.1705,0
5719355,0.9996,0.0069,0.0102,-0.0267,0.0908,-0.3467,0.2288,0
5719689,0.9996,0.0068,0.0102,-0.0268,0.0185,-0.2796,0.1799,0
5719855,0.9996,0.0068,0.0101,-0.0268,0.0297,-0.2975,0.1564,0
5720022,0.9996,0.0067,0.0101,-0.0268,0.0696,-0.3575,0.1888,0
5720189,0.9996,0.0067,0.0101,-0.0268,0.1075,-0.3390,0.2464,0
5720355,0.9996,0.0066,0.0101,-0.0268,0.0964,-0.2716,0.2171,0
5720522,0.9996,0.0066,0.0101,-0.0269,0.0388,-0.2781,0.1683,0
5720689,0.9996,0.0066,0.0101,-0.0269,-0.0298,-0.3000,0.1987,0
5720856,0.9996,0.0065,0.0101,-0.0270,0.0266,-0.3038,0.2044,0
5721022,0.9996,0.0065,0.0101,-0.0270,0.1048,-0.3171,0.1910,0
5721189,0.9996,0.0064,0.0101,-0.0270,0.1482,-0.3308,0.2213,0
5721356,0.9996,0.0064,0.0101,-0.0271,0.0659,-0.3216,0.2251,0
5721689,0.9996,0.0063,0.0100,-0.0271,-0.0029,-0.2817,0.1743,0
5721856,0.9996,0.0062,0.0100,-0.0271,0.0561,-0.2747,0.2119,0
5722022,0.9996,0.0062,0.0100,-0.0271,0.1097,-0.3151,0.2278,0
5722189,0.9996,0.0062,0.0100,-0.0271,0.1021,-0.3324,0.1541,0
5722356,0.9996,0.0061,0.0100,-0.0272,0.0512,-0.3460,0.2258,0
5722522,0.9996,0.0061,0.0100,-0.0272,0.0322,-0.2833,0.2161,0
5722689,0.9996,0.0060,0.0100,-0.0272,0.0207,-0.2395,0.2277,0
5722856,0.9996,0.0060,0.0100,-0.0272,0.0416,-0.2826,0.1915,0
5723022,0.9996,0.0060,0.0100,-0.0272,0.0594,-0.3301,0.2008,0
5723189,0.9996,0.0059,0.0100,-0.0273,0.0746,-0.3446,0.1954,0
5723356,0.9996,0.0059,0.0100,-0.0273,0.0837,-0.3197,0.1875,0
5723522,0.9996,0.0059,0.0100,-0.0273,0.0248,-0.2603,0.2146,0
5723856,0.9996,0.0058,0.0099,-0.0274,0.0342,-0.2633,0.2003,0
5724022,0.9996,0.0057,0.0099,-0.0274,0.0767,-0.3288,0.1944,0
5724189,0.9996,0.0057,0.0099,-0.0274,0.0976,-0.3254,0.2124,0
5724356,0.9996,0.0057,0.0099,-0.0274,0.0870,-0.3088,0.2043,0
5724522,0.9996,0.0056,0.0099,-0.0274,0.0241,-0.2679,0.1915,0
5724689,0.9996,0.0056,0.0099,-0.0275,-0.0162,-0.2536,0.2053,0
5724856,0.9996,0.0055,0.0099,-0.0275,0.0315,-0.2654,0.1712,0
5725356,0.9996,0.0054,0.0098,-0.0275,0.0740,-0.3137,0.1697,0
5725522,0.9996,0.0054,0.0098,-0.0276,0.0226,-0.2631,0.1896,0
5726022,0.9996,0.0052,0.0098,-0.0276,0.0827,-0.2969,0.2168,0
5726189,0.9996,0.0052,0.0098,-0.0276,0.0836,-0.3243,0.1760,0
5726356,0.9996,0.0052,0.0098,-0.0277,0.0603,-0.3110,0.1964,0
5726522,0.9996,0.0051,0.0097,-0.0276,0.0231,-0.2628,0.2094,0
5726689,0.9996,0.0051,0.0097,-0.0276,0.0046,-0.2435,0.2055,0
5726856,0.9996,0.0050,0.0097,-0.0276,0.0285,-0.2742,0.1882,0
5727022,0.9996,0.0050,0.0097,-0.0277,0.0690,-0.2800,0.2247,0
5727189,0.9996,0.0050,0.0097,-0.0277,0.0849,-0.3094,0.2049,0
5727356,0.9996,0.0049,0.0097,-0.0277,0.0631,-0.2773,0.1720,0
5727522,0.9996,0.0049,0.0097,-0.0277,0.0299,-0.2662,0.2020,0
5727689,0.9996,0.0048,0.0097,-0.0277,0.0069,-0.2327,0.2204,0
5727856,0.9996,0.0048,0.0096,-0.0278,0.0145,-0.2613,0.1793,0
5728356,0.9996,0.0047,0.0096,-0.0278,0.0828,-0.2906,0.2407,0
5728522,0.9996,0.0046,0.0096,-0.0278,0.0526,-0.2712,0.2349,0
5729022,0.9996,0.0046,0.0095,-0.0279,0.0697,-0.2643,0.2541,0
5729189,0.9996,0.0045,0.0095,-0.0279,0.0726,-0.3010,0.1684,0
5729356,0.9996,0.0045,0.0095,-0.0279,0.0658,-0.2943,0.1976,0
5729522,0.9996,0.0044,0.0095,-0.0279,0.0561,-0.2377,0.2370,0
5729689,0.9996,0.0044,0.0095,-0.0280,0.0180,-0.2548,0.1690,0
5729856,0.9996,0.0044,0.0095,-0.0280,0.0304,-0.2422,0.1870,0
5730522,0.9996,0.0042,0.0095,-0.0280,0.0421,-0.2759,0.2305,0
5730689,0.9996,0.0042,0.0094,-0.0280,0.0311,-0.2218,0.1897,0
5730856,0.9996,0.0042,0.0094,-0.0280,0.0311,-0.2479,0.1750,0
5731022,0.9996,0.0041,0.0094,-0.0280,0.0272,-0.2712,0.2144,0
5731189,0.9996,0.0041,0.0094,-0.0280,0.0560,-0.2626,0.2241,0
5731356,0.9996,0.0041,0.0094,-0.0280,0.0688,-0.2674,0.1697,0
5731689,0.9996,0.0040,0.0094,-0.0281,0.0170,-0.2594,0.2109,0
5731856,0.9996,0.0040,0.0094,-0.0281,0.0317,-0.2251,0.1736,0
5732022,0.9996,0.0039,0.0093,-0.0282,0.0300,-0.2759,0.1943,0
5732522,0.9996,0.0038,0.0093,-0.0282,0.0386,-0.2835,0.1732,0
5732689,0.9996,0.0038,0.0093,-0.0282,-0.0043,-0.2647,0.1837,0
5732856,0.9996,0.0037,0.0093,-0.0282,0.0355,-0.2079,0.2036,0
5733189,0.9996,0.0037,0.0092,-0.0283,0.0530,-0.2674,0.2035,0
5733356,0.9996,0.0036,0.0092,-0.0282,0.0608,-0.2790,0.1869,0
5733522,0.9996,0.0036,0.0092,-0.0283,0.0421,-0.2614,0.1809,0
5733689,0.9996,0.0036,0.0092,-0.0282,0.0327,-0.2427,0.2310,0
5733856,0.9996,0.0035,0.0092,-0.0282,0.0229,-0.2352,0.1964,0
5734022,0.9996,0.0035,0.0092,-0.0283,0.0373,-0.2268,0.1982,0
5734689,0.9996,0.0033,0.0091,-0.0282,0.0288,-0.2362,0.1969,0
5734856,0.9996,0.0033,0.0091,-0.0282,0.0114,-0.2354,0.1831,0
5735022,0.9996,0.0032,0.0091,-0.0283,0.0268,-0.2275,0.2043,0
5735189,0.9996,0.0032,0.0091,-0.0283,0.0497,-0.2561,0.1914,0
5735356,0.9996,0.0032,0.0091,-0.0283,0.0438,-0.2592,0.1722,0
5735522,0.9996,0.0032,0.0091,-0.0283,0.0472,-0.2361,0.2123,0
5735856,0.9996,0.0031,0.0090,-0.0283,0.0126,-0.2345,0.1872,0
5736022,0.9996,0.0030,0.0090,-0.0283,0.0278,-0.2274,0.1817,0
5736189,0.9996,0.0030,0.0090,-0.0283,0.0484,-0.2348,0.2169,0
5736356,0.9996,0.0030,0.0090,-0.0282,0.0510,-0.2516,0.2122,0
5736522,0.9996,0.0029,0.0090,-0.0282,0.0267,-0.2569,0.1750,0
5736689,0.9996,0.0029,0.0090,-0.0282,0.0389,-0.2287,0.1822,0
5736856,0.9996,-0.0089,0.0105,-0.0254,0.0698,0.0129,0.2221,0
5737356,0.9996,-0.0089,0.0105,-0.0255,0.0837,-0.0088,0.2000,0
5737523,0.9996,-0.0089,0.0105,-0.0255,0.0558,-0.0111,0.1958,0
5738023,0.9996,-0.0089,0.0105,-0.0255,0.0659,0.0074,0.2009,0
5738189,0.9996,-0.0089,0.0105,-0.0255,0.0628,-0.0229,0.2064,0
5738356,0.9996,-0.0089,0.0104,-0.0255,0.0742,-0.0264,0.2313,0
5738523,0.9996,-0.0089,0.0104,-0.0255,0.0625,-0.0143,0.1927,0
5738689,0.9996,-0.0089,0.0104,-0.0255,0.0614,-0.0089,0.1935,0
5738856,0.9996,-0.0089,0.0104,-0.0255,0.0746,-0.0107,0.2195,0
5739023,0.9996,-0.0089,0.0104,-0.0255,0.0759,0.0098,0.2083,0
5739189,0.9996,-0.0089,0.0104,-0.0255,0.0821,0.0055,0.1995,0
5739356,0.9996,-0.0089,0.0104,-0.0256,0.0642,-0.0137,0.1819,0
5739523,0.9996,-0.0089,0.0104,-0.0256,0.0641,0.0121,0.2260,0
5739689,0.9996,-0.0089,0.0104,-0.0256,0.0638,0.0001,0.1927,0
5739856,0.9996,-0.0089,0.0104,-0.0256,0.0586,0.0053,0.1907,0
5740023,0.9996,-0.0089,0.0104,-0.0256,0.0769,0.0104,0.2235,0
5740189,0.9996,-0.0089,0.0104,-0.0256,0.0626,-0.0120,0.2053,0
5740356,0.9996,-0.0089,0.0104,-0.0256,0.0769,-0.0180,0.1912,0
5740523,0.9996,-0.0089,0.0104,-0.0256,0.0577,0.0138,0.2209,0
5740689,0.9996,-0.0089,0.0104,-0.0256,0.0831,0.0205,0.2150,0
5740856,0.9996,-0.0090,0.0104,-0.0256,0.0657,0.0044,0.2170,0
5741023,0.9996,-0.0090,0.0104,-0.0256,0.0531,0.0008,0.2019,0
5741189,0.9996,-0.0090,0.0104,-0.0256,0.0731,-0.0084,0.1819,0
5741356,0.9996,-0.0090,0.0104,-0.0256,0.0727,-0.0052,0.2069,0
5741523,0.9996,-0.0090,0.0104,-0.0256,0.0802,-0.0078,0.2207,0
5741689,0.9996,-0.0090,0.0104,-0.0256,0.0777,-0.0081,0.2005,0
5741856,0.9996,-0.0090,0.0104,-0.0256,0.0648,0.0052,0.2089,0
5742189,0.9996,-0.0090,0.0104,-0.0257,0.0713,-0.0153,0.2154,0
5742356,0.9996,-0.0090,0.0104,-0.0257,0.0729,-0.0057,0.1968,0
5742523,0.9996,-0.0090,0.0104,-0.0257,0.0548,-0.0045,0.1969,0
5742689,0.9996,-0.0090,0.0104,-0.0257,0.0631,0.0044,0.1759,0
5742856,0.9996,-0.0090,0.0104,-0.0257,0.0823,0.0046,0.2076,0
5743023,0.9996,-0.0090,0.0104,-0.0257,0.0816,0.0103,0.2013,0
5743189,0.9996,-0.0090,0.0104,-0.0257,0.0740,-0.0060,0.1898,0
5743356,0.9996,-0.0090,0.0104,-0.0257,0.0616,-0.0073,0.1979,0
5743523,0.9996,-0.0091,0.0104,-0.0257,0.0827,0.0045,0.2111,0
5743689,0.9996,-0.0090,0.0104,-0.0257,0.0785,0.0154,0.1861,0
5743856,0.9996,-0.0090,0.0104,-0.0257,0.0612,0.0031,0.2152,0
5744023,0.9996,-0.0090,0.0104,-0.0257,0.0728,-0.0035,0.1983,0
5744523,0.9996,-0.0091,0.0104,-0.0257,0.0895,0.0085,0.1974,0
5744689,0.9996,-0.0091,0.0104,-0.0257,0.0647,0.0017,0.2024,0
5744856,0.9996,-0.0091,0.0103,-0.0257,0.0547,-0.0000,0.2136,0
5745189,0.9996,-0.0091,0.0103,-0.0257,0.0825,-0.0015,0.2028,0
5745356,0.9996,-0.0091,0.0103,-0.0257,0.0796,-0.0026,0.2021,0
5745523,0.9996,-0.0091,0.0104,-0.0257,0.0623,-0.0063,0.1913,0
5745689,0.9996,-0.0091,0.0103,-0.0257,0.0633,-0.0160,0.2011,0
5745856,0.9996,-0.0091,0.0103,-0.0257,0.0809,0.0003,0.1727,0
5746023,0.9996,-0.0091,0.0103,-0.0257,0.0638,0.0097,0.1866,0
5746689,0.9996,-0.0091,0.0103,-0.0257,0.0658,0.0066,0.1969,0
5746856,0.9996,-0.0091,0.0103,-0.0257,0.0665,0.0055,0.2101,0
5747189,0.9996,-0.0091,0.0103,-0.0257,0.0742,-0.0120,0.2285,0
5747356,0.9996,-0.0091,0.0103,-0.0257,0.0904,-0.0154,0.2283,0
5747856,0.9996,-0.0091,0.0103,-0.0257,0.0585,0.0029,0.2119,0
5748023,0.9996,-0.0091,0.0103,-0.0257,0.0656,0.0082,0.2286,0
5748189,0.9996,-0.0091,0.0103,-0.0257,0.0816,-0.0256,0.2100,0
5748356,0.9996,-0.0091,0.0103,-0.0257,0.0766,0.0035,0.1970,0
5748523,0.9996,-0.0091,0.0103,-0.0257,0.0769,0.0043,0.2073,0
5748689,0.9996,-0.0091,0.0103,-0.0257,0.0601,0.0064,0.2087,0
5748856,0.9996,-0.0091,0.0102,-0.0258,0.0623,0.0121,0.2138,0
5749023,0.9996,-0.0091,0.0102,-0.0258,0.0638,0.0223,0.2232,0
5749189,0.9996,-0.0091,0.0102,-0.0258,0.0737,0.0126,0.2072,0
5749356,0.9996,-0.0091,0.0102,-0.0258,0.0798,-0.0211,0.1986,0
5749523,0.9996,-0.0091,0.0102,-0.0258,0.0672,-0.0264,0.2228,0
5749689,0.9996,-0.0091,0.0102,-0.0258,0.0676,-0.0057,0.1932,0
5749856,0.9996,-0.0091,0.0102,-0.0258,0.0745,0.0086,0.1757,0
5750023,0.9996,-0.0091,0.0102,-0.0258,0.0667,0.0095,0.2065,0
5750189,0.9996,-0.0091,0.0102,-0.0258,0.0569,-0.0252,0.2303,0
5750356,0.9996,-0.0091,0.0102,-0.0258,0.0513,0.0058,0.1877,0
5750523,0.9996,-0.0091,0.0102,-0.0258,0.0768,0.0250,0.1805,0
5750689,0.9996,-0.0091,0.0102,-0.0258,0.0723,0.0245,0.2110,0
5750856,0.9996,-0.0091,0.0102,-0.0258,0.0679,-0.0059,0.2004,0
5751023,0.9996,-0.0091,0.0102,-0.0258,0.0520,-0.0096,0.2052,0
5751189,0.9996,-0.0091,0.0102,-0.0258,0.0613,-0.0039,0.2018,0
5751523,0.9996,-0.0091,0.0102,-0.0258,0.0665,-0.0043,0.1978,0
5751689,0.9996,-0.0091,0.0102,-0.0258,0.0554,-0.0215,0.1855,0
5751856,0.9996,-0.0091,0.0102,-0.0258,0.0793,0.0007,0.2219,0
5752023,0.9996,-0.0091,0.0102,-0.0258,0.0656,0.0008,0.2164,0
5752189,0.9996,-0.0091,0.0101,-0.0258,0.0643,0.0015,0.2099,0
5752356,0.9996,-0.0091,0.0101,-0.0258,0.0533,-0.0101,0.2106,0
5752523,0.9996,-0.0091,0.0101,-0.0258,0.0539,0.0046,0.1940,0
5752689,0.9996,-0.0091,0.0101,-0.0258,0.0807,0.0045,0.1944,0
5752856,0.9996,-0.0091,0.0101,-0.0258,0.0856,0.0084,0.2299,0
5753023,0.9996,-0.0091,0.0101,-0.0258,0.0513,0.0050,0.2015,0
5753189,0.9996,-0.0091,0.0101,-0.0258,0.0458,0.0041,0.1913,0
5753356,0.9996,-0.0091,0.0101,-0.0258,0.0547,-0.0140,0.2063,0
5753523,0.9996,-0.0091,0.0101,-0.0258,0.0728,0.0029,0.2227,0
5753689,0.9996,-0.0091,0.0101,-0.0258,0.0821,-0.0008,0.1884,0
5753856,0.9996,-0.0091,0.0101,-0.0259,0.0626,0.0004,0.1858,0
5754190,0.9996,-0.0091,0.0101,-0.0259,0.0624,0.0021,0.2029,0
5754356,0.9996,-0.0091,0.0101,-0.0259,0.0589,0.0013,0.2044,0
5754523,0.9996,-0.0091,0.0101,-0.0259,0.0537,0.0024,0.2010,0
5754690,0.9996,-0.0091,0.0101,-0.0259,0.0674,-0.0040,0.2224,0
5754856,0.9996,-0.0091,0.0101,-0.0259,0.0765,-0.0026,0.1998,0
5755023,0.9996,-0.0091,0.0100,-0.0259,0.0577,-0.0034,0.2035,0
5755190,0.9996,-0.0091,0.0100,-0.0259,0.0544,0.0033,0.2045,0
5755356,0.9996,-0.0091,0.0100,-0.0259,0.0650,0.0067,0.2166,0
5755690,0.9996,-0.0091,0.0100,-0.0259,0.0585,0.0161,0.2027,0
5755856,0.9996,-0.0091,0.0100,-0.0259,0.0575,-0.0015,0.2241,0
5756023,0.9996,-0.0091,0.0100,-0.0259,0.0609,-0.0014,0.2058,0
5756190,0.9996,-0.0091,0.0100,-0.0259,0.0400,0.0041,0.2103,0
5756356,0.9996,-0.0091,0.0100,-0.0259,0.0634,-0.0025,0.2178,0
5756523,0.9996,-0.0091,0.0100,-0.0259,0.0613,0.0051,0.1717,0
5756690,0.9996,-0.0091,0.0100,-0.0259,0.0649,-0.0047,0.2028,0
5756856,0.9996,-0.0091,0.0099,-0.0259,0.0580,-0.0031,0.2309,0
5757190,0.9996,-0.0091,0.0099,-0.0258,0.0643,-0.0083,0.1839,0
5757356,0.9996,-0.0091,0.0099,-0.0259,0.0584,-0.0062,0.2240,0
5757523,0.9996,-0.0091,0.0099,-0.0259,0.0705,0.0036,0.1981,0
5757690,0.9996,-0.0091,0.0099,-0.0259,0.0627,-0.0067,0.1889,0
5757856,0.9996,-0.0091,0.0099,-0.0259,0.0615,0.0035,0.2068,0
5758023,0.9996,-0.0091,0.0099,-0.0259,0.0468,0.0024,0.1983,0
5758690,0.9996,-0.0091,0.0099,-0.0259,0.0679,0.0080,0.2171,0
5758856,0.9996,-0.0091,0.0099,-0.0259,0.0754,-0.0004,0.2381,0
5759023,0.9996,-0.0091,0.0099,-0.0259,0.0694,0.0082,0.1883,0
5759190,0.9996,-0.0091,0.0099,-0.0259,0.0627,0.0111,0.2039,0
5759356,0.9996,-0.0091,0.0099,-0.0259,0.0455,-0.0076,0.2134,0
5759523,0.9996,-0.0091,0.0099,-0.0259,0.0481,0.0000,0.1842,0
5759856,0.9996,-0.0091,0.0099,-0.0259,0.0690,0.0052,0.2009,0
5760023,0.9996,-0.0091,0.0099,-0.0259,0.0612,0.0146,0.1900,0
5760190,0.9996,-0.0091,0.0099,-0.0259,0.0513,-0.0013,0.2221,0
5760690,0.9996,-0.0091,0.0098,-0.0259,0.0853,0.0223,0.2075,0
5760856,0.9996,-0.0091,0.0098,-0.0259,0.0674,-0.0176,0.2184,0
5761023,0.9996,-0.0091,0.0098,-0.0260,0.0497,-0.0013,0.2238,0
5761356,0.9996,-0.0091,0.0098,-0.0260,0.0546,0.0263,0.2234,0
5761523,0.9996,-0.0091,0.0098,-0.0260,0.0545,-0.0025,0.2039,0
5761690,0.9996,-0.0091,0.0098,-0.0260,0.0611,0.0055,0.1973,0
5762023,0.9996,-0.0091,0.0098,-0.0260,0.0395,-0.0162,0.1670,0
5762190,0.9996,-0.0091,0.0098,-0.0260,0.0414,0.0061,0.2042,0
5762356,0.9996,-0.0091,0.0098,-0.0260,0.0570,0.0382,0.1998,0
5762856,0.9996,-0.0091,0.0098,-0.0260,0.0721,0.0146,0.2086,0
5763023,0.9996,-0.0091,0.0098,-0.0260,0.0416,-0.0088,0.1702,0
5763190,0.9996,-0.0091,0.0098,-0.0260,0.0050,-0.0192,0.1360,0
5763523,0.9996,-0.0091,0.0098,-0.0260,0.1402,0.0745,0.3254,0
5763690,0.9996,-0.0091,0.0098,-0.0260,0.0967,-0.0067,0.1183,0
5763856,0.9996,-0.0091,0.0098,-0.0260,-0.0406,-0.0794,0.1245,0
5764023,0.9996,-0.0091,0.0098,-0.0260,0.0366,0.0155,0.2597,0
5764190,0.9996,-0.0091,0.0098,-0.0260,0.0629,0.0419,0.2412,0
5764356,0.9996,-0.0091,0.0098,-0.0260,0.0691,0.0052,0.1514,0
5765023,0.9996,-0.0091,0.0097,-0.0260,0.0446,0.0368,0.2299,0
5765190,0.9996,-0.0091,0.0097,-0.0260,0.1421,0.1122,0.2639,0
5765356,0.9996,-0.0091,0.0098,-0.0260,0.0527,-0.0386,0.1934,0
5765523,0.9996,-0.0091,0.0097,-0.0260,-0.0106,-0.0993,0.1722,0
5765690,0.9996,-0.0091,0.0097,-0.0260,0.0946,0.0314,0.2038,0
5766190,0.9996,-0.0091,0.0097,-0.0260,0.0155,-0.0029,0.1994,0
5766356,0.9996,-0.0091,0.0097,-0.0260,0.0596,0.0358,0.1907,0
5766523,0.9996,-0.0091,0.0097,-0.0260,0.0656,-0.0205,0.1929,0
5766690,0.9996,-0.0091,0.0097,-0.0260,0.0733,-0.0157,0.2005,0
5766856,0.9996,-0.0091,0.0097,-0.0260,0.0901,0.0660,0.2509,0
5767023,0.9996,-0.0091,0.0097,-0.0260,0.0341,-0.0053,0.1763,0
5767190,0.9996,-0.0091,0.0097,-0.0260,0.0190,-0.0542,0.2036,0
5767356,0.9996,-0.0091,0.0097,-0.0260,0.0847,0.0540,0.2470,0
5767690,0.9996,-0.0091,0.0097,-0.0260,0.0326,-0.0349,0.1438,0
5767856,0.9996,-0.0091,0.0097,-0.0260,0.0188,-0.0343,0.1793,0
5768023,0.9996,-0.0091,0.0097,-0.0260,0.0821,0.0594,0.2008,0
5768190,0.9996,-0.0091,0.0097,-0.0260,0.0602,0.0074,0.2026,0
5768356,0.9996,-0.0091,0.0097,-0.0260,0.0525,-0.0338,0.2137,0
5768523,0.9996,-0.0091,0.0097,-0.0260,0.0686,0.0188,0.1827,0
5768690,0.9996,-0.0091,0.0097,-0.0260,0.0591,0.0127,0.2024,0
5768856,0.9996,-0.0091,0.0097,-0.0260,0.0310,-0.0282,0.2151,0
5769023,0.9996,-0.0091,0.0097,-0.0260,0.0601,0.0136,0.2184,0
5769190,0.9996,-0.0091,0.0097,-0.0260,0.0593,0.0427,0.2271,0
5769356,0.9996,-0.0091,0.0097,-0.0260,0.0468,-0.0330,0.2189,0
5769523,0.9996,-0.0091,0.0097,-0.0260,0.0485,-0.0296,0.1485,0
5769690,0.9996,-0.0091,0.0097,-0.0260,0.0778,0.0285,0.2055,0
5769856,0.9996,-0.0091,0.0097,-0.0260,0.0324,0.0199,0.2365,0
5770023,0.9996,-0.0091,0.0097,-0.0260,0.0144,-0.0136,0.1784,0
5770356,0.9996,-0.0091,0.0097,-0.0260,0.0835,0.0206,0.2216,0
5770523,0.9996,-0.0091,0.0097,-0.0260,0.0624,-0.0211,0.1721,0
5770690,0.9996,-0.0091,0.0097,-0.0260,0.0617,-0.0163,0.1992,0
5770857,0.9996,-0.0091,0.0097,-0.0260,0.0489,0.0463,0.2461,0
5771023,0.9996,-0.0091,0.0097,-0.0260,0.0336,0.0099,0.1718,0
5771190,0.9996,-0.0091,0.0097,-0.0260,0.0331,-0.0186,0.1756,0
5771357,0.9996,-0.0091,0.0096,-0.0260,0.0862,-0.0001,0.2391,0
5771523,0.9996,-0.0091,0.0096,-0.0260,0.0788,-0.0052,0.2102,0
5771690,0.9996,-0.0091,0.0096,-0.0260,0.0419,-0.0270,0.1773,0
5771857,0.9996,-0.0091,0.0096,-0.0260,0.0410,0.0101,0.1988,0
5772023,0.9996,-0.0091,0.0096,-0.0260,0.0437,0.0407,0.2081,0
5772190,0.9996,-0.0091,0.0096,-0.0260,0.0385,-0.0068,0.1996,0
5772690,0.9996,-0.0091,0.0096,-0.0260,0.0771,0.0157,0.2070,0
5772857,0.9996,-0.0091,0.0096,-0.0260,0.0497,0.0151,0.2132,0
5773023,0.9996,-0.0091,0.0096,-0.0260,0.0521,0.0319,0.2170,0
5773357,0.9996,-0.0091,0.0096,-0.0260,0.0672,-0.0241,0.2043,0
5773523,0.9996,-0.0091,0.0096,-0.0260,0.0843,-0.0157,0.1974,0
5773690,0.9996,-0.0091,0.0096,-0.0260,0.0682,0.0053,0.2205,0
5774023,0.9996,-0.0091,0.0096,-0.0261,0.0251,-0.0009,0.1977,0
5774190,0.9996,-0.0091,0.0096,-0.0261,0.0501,0.0037,0.2246,0
5774357,0.9996,-0.0091,0.0096,-0.0261,0.0665,0.0109,0.1997,0
5774523,0.9996,-0.0091,0.0096,-0.0261,0.0674,-0.0197,0.1762,0
5774690,0.9996,-0.0091,0.0096,-0.0261,0.0534,-0.0096,0.2210,0
5774857,0.9996,-0.0091,0.0096,-0.0261,0.0345,0.0239,0.2188,0
5775023,0.9996,-0.0092,0.0096,-0.0261,0.0491,0.0091,0.1900,0
5775190,0.9996,-0.0092,0.0095,-0.0261,0.0356,0.0057,0.2019,0
5775357,0.9996,-0.0092,0.0095,-0.0261,0.0691,0.0091,0.2141,0
5775523,0.9996,-0.0092,0.0095,-0.0261,0.0551,-0.0042,0.1756,0
5775690,0.9996,-0.0092,0.0095,-0.0261,0.0482,-0.0143,0.1973,0
5775857,0.9996,-0.0092,0.0095,-0.0261,0.0525,0.0221,0.2329,0
5776023,0.9996,-0.0092,0.0095,-0.0261,0.0415,0.0409,0.1896,0
5776190,0.9996,-0.0092,0.0095,-0.0261,0.0350,-0.0113,0.2046,0
5776357,0.9996,-0.0092,0.0095,-0.0261,0.0474,-0.0078,0.2080,0
5776523,0.9996,-0.0092,0.0095,-0.0261,0.0631,0.0014,0.1917,0
5777023,0.9996,-0.0092,0.0095,-0.0261,0.0383,0.0246,0.1843,0
5777190,0.9996,-0.0093,0.0095,-0.0261,0.0361,0.0173,0.1930,0
5777357,0.9996,-0.0093,0.0095,-0.0261,0.0645,-0.0042,0.2067,0
5777523,0.9996,-0.0093,0.0094,-0.0261,0.0727,-0.0099,0.1780,0
5777690,0.9996,-0.0093,0.0094,-0.0261,0.0611,-0.0002,0.2229,0
5777857,0.9996,-0.0093,0.0094,-0.0261,0.0442,-0.0033,0.2098,0
5778023,0.9996,-0.0093,0.0094,-0.0261,0.0386,0.0032,0.2067,0
5778190,0.9996,-0.0093,0.0094,-0.0261,0.0429,0.0242,0.2306,0
5778357,0.9996,-0.0093,0.0094,-0.0261,0.0557,0.0057,0.2258,0
5778523,0.9996,-0.0093,0.0094,-0.0261,0.0718,-0.0136,0.1800,0
5778690,0.9996,-0.0093,0.0094,-0.0261,0.0615,0.0104,0.2041,0
5778857,0.9996,-0.0092,0.0094,-0.0261,0.0581,0.0267,0.2109,0
5779023,0.9996,-0.0092,0.0094,-0.0261,0.0370,0.0210,0.1873,0
5779190,0.9996,-0.0092,0.0094,-0.0261,0.0448,0.0012,0.2118,0
5779357,0.9996,-0.0092,0.0094,-0.0261,0.0532,0.0077,0.2218,0
5779523,0.9996,-0.0093,0.0094,-0.0261,0.0612,-0.0145,0.1878,0
5779690,0.9996,-0.0093,0.0094,-0.0261,0.0764,-0.0010,0.2222,0
5779857,0.9996,-0.0093,0.0094,-0.0261,0.0533,0.0117,0.2279,0
5780023,0.9996,-0.0093,0.0094,-0.0261,0.0296,0.0167,0.2098,0
5780190,0.9996,-0.0093,0.0094,-0.0261,0.0306,0.0083,0.1933,0
5780357,0.9996,-0.0093,0.0094,-0.0261,0.0475,0.0156,0.2255,0
5780523,0.9996,-0.0093,0.0094,-0.0261,0.0765,0.0272,0.1915,0
5780690,0.9996,-0.0093,0.0094,-0.0262,0.0627,-0.0020,0.2148,0
5780857,0.9996,-0.0092,0.0094,-0.0261,0.0319,-0.0056,0.2216,0
5781190,0.9996,-0.0092,0.0094,-0.0261,0.0588,0.0073,0.2036,0
5781357,0.9996,-0.0093,0.0094,-0.0261,0.0472,-0.0147,0.2457,0
5781523,0.9996,-0.0092,0.0094,-0.0261,0.0574,-0.0033,0.1909,0
5781690,0.9996,-0.0092,0.0094,-0.0261,0.0479,0.0031,0.1801,0
5781857,0.9996,-0.0092,0.0094,-0.0261,0.0427,0.0101,0.2190,0
5782023,0.9996,-0.0092,0.0094,-0.0261,0.0601,0.0177,0.2099,0
5782357,0.9996,-0.0092,0.0094,-0.0261,0.0234,-0.0034,0.2326,0
5782523,0.9996,-0.0092,0.0094,-0.0261,0.0297,-0.0001,0.1869,0
5782690,0.9996,-0.0092,0.0094,-0.0261,0.0739,0.0238,0.2045,0
5782857,0.9996,-0.0093,0.0094,-0.0261,0.0692,0.0277,0.2481,0
5783023,0.9996,-0.0092,0.0094,-0.0261,0.0373,-0.0067,0.2143,0
5783190,0.9996,-0.0092,0.0094,-0.0261,0.0392,-0.0151,0.1808,0
5783357,0.9996,-0.0092,0.0094,-0.0261,0.0587,-0.0075,0.2162,0
5783523,0.9996,-0.0092,0.0094,-0.0261,0.0662,0.0294,0.1933,0
5783690,0.9996,-0.0092,0.0094,-0.0262,0.0475,0.0034,0.1480,0
5783857,0.9996,-0.0093,0.0094,-0.0262,0.0450,0.0056,0.2365,0
5784023,0.9996,-0.0092,0.0094,-0.0262,0.0799,0.0249,0.2968,0
5784190,0.9996,-0.0092,0.0094,-0.0262,0.0535,-0.0046,0.0946,0
5784523,0.9996,-0.0092,0.0094,-0.0262,0.0337,0.0271,0.2920,0
5784690,0.9996,-0.0092,0.0094,-0.0261,0.0525,0.0092,0.1597,0
5784857,0.9996,-0.0092,0.0094,-0.0261,0.0496,-0.0060,0.1617,0
5785023,0.9996,-0.0092,0.0094,-0.0261,0.0675,0.0287,0.2798,0
5785190,0.9996,-0.0092,0.0094,-0.0261,0.0498,0.0062,0.1890,0
5785357,0.9996,-0.0092,0.0094,-0.0262,0.0127,-0.0348,0.1576,0
5785523,0.9996,-0.0092,0.0094,-0.0262,0.0482,0.0167,0.2569,0
5785690,0.9996,-0.0092,0.0094,-0.0262,0.0688,0.0546,0.2287,0
5786023,0.9996,-0.0092,0.0094,-0.0262,0.0287,-0.0506,0.2402,0
5786190,0.9996,-0.0092,0.0094,-0.0262,0.0561,0.0494,0.2323,0
5786357,0.9996,-0.0092,0.0094,-0.0261,0.0616,0.0178,0.1817,0
5786857,0.9996,-0.0092,0.0094,-0.0261,0.0730,0.0335,0.1953,0
5787023,0.9996,-0.0092,0.0094,-0.0261,0.0286,-0.0242,0.1918,0
5787190,0.9996,-0.0093,0.0094,-0.0261,0.0403,-0.0064,0.2261,0
5787524,0.9996,-0.0093,0.0094,-0.0261,0.0364,-0.0116,0.1768,0
5787690,0.9996,-0.0092,0.0094,-0.0261,0.0439,-0.0229,0.2140,0
5787857,0.9996,-0.0092,0.0094,-0.0262,0.0686,0.0500,0.2200,0
5788024,0.9996,-0.0092,0.0094,-0.0261,0.0532,0.0058,0.1930,0
5788190,0.9996,-0.0092,0.0093,-0.0261,0.0224,-0.0406,0.2074,0
5788357,0.9996,-0.0092,0.0093,-0.0262,0.0450,0.0080,0.1944,0
5788524,0.9996,-0.0092,0.0093,-0.0262,0.0645,0.0400,0.2189,0
5788690,0.9996,-0.0092,0.0093,-0.0262,0.0449,0.0021,0.2280,0
5788857,0.9996,-0.0092,0.0093,-0.0262,0.0320,0.0121,0.2017,0
5789024,0.9996,-0.0092,0.0093,-0.0262,0.0601,0.0317,0.2074,0
5789190,0.9996,-0.0092,0.0093,-0.0262,0.0248,-0.0222,0.2206,0
5789357,0.9996,-0.0092,0.0093,-0.0262,0.0437,-0.0211,0.1984,0
5789524,0.9996,-0.0092,0.0093,-0.0262,0.0686,0.0300,0.2065,0
5789690,0.9996,-0.0093,0.0093,-0.0262,0.0632,0.0227,0.2104,0
5790190,0.9996,-0.0093,0.0093,-0.0262,0.0696,0.0249,0.2255,0
5791024,0.9996,-0.0092,0.0093,-0.0262,0.0574,-0.0034,0.1656,0
5791190,0.9996,-0.0092,0.0093,-0.0262,0.0398,0.0087,0.2325,0
5791357,0.9996,-0.0093,0.0093,-0.0262,0.0573,0.0183,0.1885,0
5792190,0.9996,-0.0092,0.0092,-0.0262,0.0284,0.0015,0.2364,0
5792357,0.9996,-0.0092,0.0092,-0.0262,0.0688,0.0142,0.2232,0
5792524,0.9996,-0.0092,0.0092,-0.0262,0.0740,0.0036,0.2040,0
5793190,0.9996,-0.0093,0.0092,-0.0262,0.0374,-0.0070,0.2077,0
5793357,0.9996,-0.0093,0.0092,-0.0262,0.0435,-0.0008,0.2210,0
5793524,0.9996,-0.0093,0.0092,-0.0262,0.0534,0.0225,0.1819,0
5793690,0.9996,-0.0093,0.0092,-0.0262,0.0521,-0.0024,0.2205,0
5793857,0.9996,-0.0093,0.0092,-0.0262,0.0144,0.0019,0.2208,0
5794024,0.9996,-0.0093,0.0092,-0.0262,0.0419,0.0179,0.2031,0
5794357,0.9996,-0.0093,0.0092,-0.0262,0.0472,-0.0221,0.2124,0
5794524,0.9996,-0.0093,0.0092,-0.0262,0.0570,0.0088,0.2054,0
5794690,0.9996,-0.0093,0.0092,-0.0262,0.0575,0.0274,0.2349,0
5794857,0.9996,-0.0093,0.0092,-0.0262,0.0390,0.0097,0.2442,0
5795024,0.9996,-0.0093,0.0092,-0.0262,0.0415,0.0033,0.2310,0
5795190,0.9996,-0.0093,0.0092,-0.0262,0.0390,0.0054,0.2105,0
5795357,0.9996,-0.0093,0.0092,-0.0262,0.0426,-0.0115,0.1981,0
5795524,0.9996,-0.0093,0.0092,-0.0262,0.0567,-0.0034,0.2074,0
5795690,0.9996,-0.0093,0.0092,-0.0262,0.0635,0.0151,0.2086,0
5795857,0.9996,-0.0093,0.0092,-0.0262,0.0484,0.0345,0.2222,0
5796024,0.9996,-0.0093,0.0092,-0.0262,0.0318,0.0008,0.1907,0
5796190,0.9996,-0.0093,0.0092,-0.0262,0.0430,-0.0020,0.2096,0
5796524,0.9996,-0.0093,0.0092,-0.0262,0.0583,0.0144,0.2242,0
5796690,0.9996,-0.0093,0.0092,-0.0262,0.0443,0.0003,0.2162,0
5796857,0.9996,-0.0093,0.0091,-0.0263,0.0279,-0.0054,0.2147,0
5797024,0.9996,-0.0094,0.0091,-0.0263,0.0336,0.0114,0.2004,0
5797190,0.9996,-0.0094,0.0091,-0.0263,0.0499,0.0194,0.2062,0
5797357,0.9996,-0.0094,0.0091,-0.0263,0.0445,0.0091,0.2035,0
5797524,0.9996,-0.0094,0.0091,-0.0263,0.0544,0.0057,0.1942,0
5797690,0.9996,-0.0094,0.0091,-0.0263,0.0223,-0.0017,0.2086,0
5797857,0.9996,-0.0094,0.0091,-0.0263,0.0458,0.0149,0.1988,0
5798024,0.9996,-0.0094,0.0091,-0.0263,0.0477,0.0143,0.1893,0
5798190,0.9996,-0.0094,0.0091,-0.0263,0.0507,0.0078,0.2201,0
5798357,0.9996,-0.0093,0.0091,-0.0263,0.0306,0.0019,0.1884,0
5798524,0.9996,-0.0094,0.0091,-0.0263,0.0620,0.0176,0.1738,0
5798690,0.9996,-0.0094,0.0091,-0.0263,0.0408,0.0105,0.2377,0
5798857,0.9996,-0.0094,0.0091,-0.0263,0.0337,0.0110,0.2044,0
5799024,0.9996,-0.0094,0.0091,-0.0263,0.0428,0.0036,0.1750,0
5799190,0.9996,-0.0094,0.0091,-0.0263,0.0395,0.0080,0.2163,0
5799357,0.9996,-0.0094,0.0091,-0.0263,0.0396,-0.0056,0.2282,0
5799524,0.9996,-0.0094,0.0091,-0.0263,0.0325,0.0049,0.1711,0
5799690,0.9996,-0.0094,0.0091,-0.0263,0.0489,0.0086,0.2002,0
5799857,0.9996,-0.0094,0.0091,-0.0263,0.0373,0.0120,0.2088,0
5800024,0.9996,-0.0094,0.0091,-0.0263,0.0402,0.0046,0.1838,0
5800190,0.9996,-0.0094,0.0091,-0.0263,0.0378,0.0047,0.2063,0
5800357,0.9996,-0.0093,0.0091,-0.0263,0.0371,0.0032,0.2105,0
5801024,0.9996,-0.0094,0.0091,-0.0263,0.0420,0.0053,0.1985,0
5801190,0.9996,-0.0094,0.0091,-0.0263,0.0413,0.0098,0.2017,0
5801357,0.9996,-0.0094,0.0091,-0.0263,0.0422,-0.0000,0.1932,0
5801524,0.9996,-0.0094,0.0091,-0.0263,0.0512,0.0171,0.1967,0
5801690,0.9996,-0.0094,0.0091,-0.0263,0.0421,-0.0048,0.2132,0
5801857,0.9996,-0.0094,0.0091,-0.0263,0.0232,0.0102,0.2223,0
5802190,0.9996,-0.0094,0.0091,-0.0263,0.0454,0.0143,0.2125,0
5802357,0.9996,-0.0094,0.0091,-0.0263,0.0469,-0.0045,0.1665,0
5802524,0.9996,-0.0094,0.0091,-0.0263,0.0585,0.0066,0.2095,0
5803024,0.9996,-0.0094,0.0090,-0.0263,0.0391,0.0022,0.2013,0
5803190,0.9996,-0.0094,0.0090,-0.0263,0.0527,0.0033,0.2071,0
5803357,0.9996,-0.0094,0.0090,-0.0263,0.0444,-0.0043,0.1779,0
5803690,0.9996,-0.0094,0.0090,-0.0263,0.0452,0.0118,0.2192,0
5803857,0.9996,-0.0094,0.0090,-0.0263,0.0361,0.0218,0.2038,0
5804024,0.9996,-0.0094,0.0090,-0.0263,0.0516,0.0131,0.2133,0
5804191,0.9996,-0.0094,0.0090,-0.0263,0.0546,0.0072,0.2175,0
5804357,0.9996,-0.0094,0.0090,-0.0263,0.0444,0.0023,0.2093,0
5804524,0.9996,-0.0094,0.0090,-0.0263,0.0472,0.0160,0.2188,0
5804691,0.9996,-0.0094,0.0090,-0.0263,0.0521,0.0171,0.2219,0
5804857,0.9996,-0.0094,0.0090,-0.0263,0.0370,0.0207,0.1945,0
5805024,0.9996,-0.0094,0.0090,-0.0263,0.0382,0.0122,0.2068,0
5805191,0.9996,-0.0094,0.0090,-0.0263,0.0441,0.0039,0.2274,0
5805357,0.9996,-0.0094,0.0090,-0.0263,0.0451,0.0094,0.1994,0
5805524,0.9996,-0.0094,0.0090,-0.0263,0.0401,0.0266,0.2023,0
5805691,0.9996,-0.0094,0.0090,-0.0264,0.0316,0.0064,0.2191,0
5805857,0.9996,-0.0094,0.0090,-0.0264,0.0240,0.0079,0.2104,0
5806024,0.9996,-0.0094,0.0090,-0.0263,0.0445,0.0095,0.1828,0
5806357,0.9996,-0.0094,0.0090,-0.0264,0.0474,0.0069,0.2124,0
5806524,0.9996,-0.0094,0.0090,-0.0264,0.0514,0.0128,0.2286,0
5806691,0.9996,-0.0094,0.0089,-0.0264,0.0380,0.0084,0.2037,0
5806857,0.9996,-0.0094,0.0089,-0.0264,0.0366,0.0145,0.1936,0
5807024,0.9996,-0.0094,0.0089,-0.0263,0.0272,0.0129,0.2032,0
5807191,0.9996,-0.0094,0.0089,-0.0263,0.0529,-0.0010,0.2117,0
5807357,0.9996,-0.0094,0.0089,-0.0264,0.0442,0.0146,0.1799,0
5807524,0.9996,-0.0094,0.0089,-0.0264,0.0406,0.0137,0.1827,0
5807691,0.9996,-0.0094,0.0089,-0.0264,0.0338,0.0007,0.1911,0
5807857,0.9996,-0.0094,0.0089,-0.0264,0.0313,0.0111,0.2126,0
5808024,0.9996,-0.0094,0.0089,-0.0264,0.0328,-0.0041,0.2204,0
5808524,0.9996,-0.0094,0.0089,-0.0264,0.0464,0.0091,0.2043,0
5808691,0.9996,-0.0094,0.0089,-0.0264,0.0374,0.0236,0.2278,0
5808857,0.9996,-0.0094,0.0089,-0.0264,0.0363,0.0086,0.2002,0
5809024,0.9996,-0.0094,0.0089,-0.0264,0.0333,0.0147,0.1934,0
5809191,0.9996,-0.0094,0.0089,-0.0264,0.0442,0.0236,0.2264,0
5809357,0.9996,-0.0094,0.0089,-0.0263,0.0495,0.0084,0.1925,0
5809524,0.9996,-0.0094,0.0089,-0.0264,0.0375,0.0111,0.2027,0
5809691,0.9996,-0.0094,0.0089,-0.0264,0.0421,0.0146,0.2095,0
5809857,0.9996,-0.0094,0.0089,-0.0264,0.0293,0.0167,0.2112,0
5810024,0.9996,-0.0094,0.0089,-0.0264,0.0264,0.0012,0.1746,0
5810191,0.9996,-0.0094,0.0089,-0.0264,0.0502,0.0214,0.2051,0
5810357,0.9996,-0.0094,0.0089,-0.0264,0.0430,0.0147,0.1816,0
5810524,0.9996,-0.0094,0.0089,-0.0264,0.0297,0.0003,0.2118,0
5810691,0.9996,-0.0094,0.0089,-0.0264,0.0254,0.0149,0.1943,0
5810857,0.9996,-0.0094,0.0089,-0.0264,0.0521,0.0320,0.1962,0
5811024,0.9996,-0.0094,0.0089,-0.0264,0.0313,0.0063,0.2075,0
5811191,0.9996,-0.0094,0.0089,-0.0264,0.0397,-0.0170,0.1907,0
5811357,0.9996,-0.0094,0.0089,-0.0264,0.0694,0.0033,0.1907,0
5811524,0.9996,-0.0094,0.0089,-0.0264,0.0414,0.0278,0.2238,0
5811691,0.9996,-0.0094,0.0089,-0.0264,0.0189,0.0044,0.2059,0
5811857,0.9996,-0.0094,0.0089,-0.0264,0.0270,0.0032,0.1836,0
5812024,0.9996,-0.0094,0.0089,-0.0264,0.0302,0.0165,0.2248,0
5812191,0.9996,-0.0094,0.0089,-0.0264,0.0626,0.0080,0.2031,0
5812357,0.9996,-0.0094,0.0089,-0.0263,0.0616,0.0084,0.2081,0
5812691,0.9996,-0.0094,0.0089,-0.0264,0.0329,0.0200,0.2208,0
5812857,0.9996,-0.0094,0.0089,-0.0264,0.0309,0.0219,0.1726,0
5813024,0.9996,-0.0094,0.0089,-0.0264,0.0496,0.0012,0.2112,0
5813191,0.9996,-0.0094,0.0089,-0.0264,0.0479,0.0008,0.2414,0
5813357,0.9996,-0.0094,0.0089,-0.0264,0.0505,-0.0029,0.1912,0
5813524,0.9996,-0.0094,0.0088,-0.0264,0.0326,0.0084,0.1898,0
5813691,0.9996,-0.0094,0.0088,-0.0264,0.0274,0.0074,0.2352,0
5813857,0.9996,-0.0094,0.0088,-0.0264,0.0122,0.0167,0.1892,0
5814024,0.9996,-0.0094,0.0088,-0.0264,0.0377,0.0127,0.2053,0
5814191,0.9996,-0.0094,0.0088,-0.0264,0.0357,-0.0042,0.2164,0
5814357,0.9996,-0.0094,0.0088,-0.0264,0.0526,-0.0058,0.2040,0
5814524,0.9996,-0.0094,0.0088,-0.0264,0.0407,0.0065,0.1892,0
5815024,0.9996,-0.0094,0.0088,-0.0264,0.0325,0.0083,0.2015,0
5815191,0.9996,-0.0094,0.0088,-0.0264,0.0644,0.0081,0.2104,0
5815357,0.9996,-0.0094,0.0088,-0.0264,0.0568,0.0041,0.2343,0
5815691,0.9996,-0.0094,0.0088,-0.0264,0.0363,0.0192,0.2134,0
5815857,0.9996,-0.0094,0.0088,-0.0264,0.0209,0.0256,0.1995,0
5816024,0.9996,-0.0094,0.0088,-0.0264,0.0596,0.0090,0.2044,0
5816191,0.9996,-0.0094,0.0088,-0.0264,0.0531,-0.0127,0.2057,0
5816357,0.9996,-0.0094,0.0088,-0.0264,0.0581,0.0197,0.2085,0
5816524,0.9996,-0.0094,0.0088,-0.0264,0.0179,0.0138,0.2059,0
5817191,0.9996,-0.0094,0.0089,-0.0264,0.0570,-0.0130,0.1930,0
5817357,0.9996,-0.0094,0.0088,-0.0264,0.0498,0.0034,0.2145,0
5817524,0.9996,-0.0094,0.0089,-0.0264,0.0168,0.0159,0.2056,0
5817691,0.9996,-0.0094,0.0089,-0.0264,0.0228,0.0236,0.2025,0
5817857,0.9996,-0.0094,0.0089,-0.0264,0.0260,0.0011,0.2184,0
5818024,0.9996,-0.0094,0.0089,-0.0264,0.0513,-0.0021,0.2101,0
5818357,0.9996,-0.0094,0.0089,-0.0264,0.0604,0.0171,0.2361,0
5818524,0.9996,-0.0094,0.0089,-0.0264,0.0198,0.0188,0.2252,0
5818691,0.9996,-0.0094,0.0089,-0.0264,0.0222,0.0161,0.1814,0
5819191,0.9996,-0.0094,0.0089,-0.0264,0.0551,0.0027,0.1973,0
5819357,0.9996,-0.0094,0.0089,-0.0264,0.0403,0.0026,0.2128,0
5819524,0.9996,-0.0094,0.0089,-0.0264,0.0253,0.0228,0.2160,0
5819857,0.9996,-0.0094,0.0088,-0.0264,0.0350,0.0059,0.2033,0
5820024,0.9996,-0.0094,0.0089,-0.0264,0.0258,-0.0111,0.2053,0
5820191,0.9996,-0.0094,0.0088,-0.0264,0.0415,0.0032,0.2036,0
5820524,0.9996,-0.0094,0.0088,-0.0264,0.0371,0.0131,0.2052,0
5820691,0.9996,-0.0094,0.0088,-0.0264,0.0183,0.0201,0.1874,0
5820858,0.9996,-0.0094,0.0088,-0.0264,0.0763,0.0437,0.2406,0
5821024,0.9996,-0.0094,0.0088,-0.0264,0.1185,0.0182,0.2687,0
5821191,0.9996,-0.0094,0.0088,-0.0264,0.0211,-0.0533,0.1251,0
5821358,0.9996,-0.0094,0.0088,-0.0264,-0.0073,-0.0145,0.1566,0
5821524,0.9996,-0.0094,0.0088,-0.0264,0.0042,0.0416,0.2421,0
5821691,0.9996,-0.0094,0.0088,-0.0264,0.0301,0.0675,0.1968,0
5821858,0.9996,-0.0094,0.0088,-0.0264,0.0475,0.0304,0.1942,0
5822024,0.9996,-0.0094,0.0088,-0.0264,0.0703,0.0059,0.2095,0
5822191,0.9996,-0.0094,0.0088,-0.0264,0.0541,-0.0479,0.1655,0
5822358,0.9996,-0.0093,0.0088,-0.0264,0.0171,-0.0350,0.1829,0
5822524,0.9996,-0.0093,0.0088,-0.0264,0.0432,0.0685,0.2334,0
5822691,0.9996,-0.0093,0.0088,-0.0264,0.0268,0.0771,0.2409,0
5822858,0.9996,-0.0093,0.0088,-0.0264,0.0120,-0.0282,0.1580,0
5823024,0.9996,-0.0093,0.0088,-0.0264,0.0321,-0.0401,0.1892,0
5823191,0.9996,-0.0094,0.0088,-0.0264,0.1048,0.0305,0.2368,0
5823524,0.9996,-0.0094,0.0088,-0.0264,-0.0181,-0.0119,0.2127,0
5823691,0.9996,-0.0094,0.0088,-0.0264,-0.0165,0.0434,0.1825,0
5823858,0.9996,-0.0094,0.0088,-0.0264,0.0440,0.0292,0.2078,0
5824024,0.9996,-0.0094,0.0088,-0.0264,0.0607,-0.0289,0.2446,0
5824191,0.9996,-0.0094,0.0088,-0.0264,0.0852,-0.0067,0.2132,0
5824358,0.9996,-0.0094,0.0088,-0.0265,0.0535,0.0156,0.1835,0
5824691,0.9996,-0.0094,0.0088,-0.0265,0.0014,0.0186,0.2036,0
5824858,0.9996,-0.0094,0.0088,-0.0265,0.0549,0.0538,0.1969,0
5825024,0.9996,-0.0094,0.0088,-0.0265,0.0777,0.0057,0.2138,0
5825191,0.9996,-0.0094,0.0088,-0.0265,0.0561,-0.0564,0.2035,0
5825358,0.9996,-0.0094,0.0088,-0.0265,0.0396,0.0017,0.1803,0
5825524,0.9996,-0.0094,0.0088,-0.0265,0.0224,0.0558,0.2448,0
5825691,0.9996,-0.0094,0.0088,-0.0265,0.0044,0.0242,0.2148,0
5825858,0.9996,-0.0094,0.0088,-0.0265,0.0429,0.0299,0.1925,0
5826191,0.9996,-0.0094,0.0088,-0.0265,0.0418,-0.0353,0.2026,0
5826358,0.9996,-0.0094,0.0088,-0.0265,0.0380,-0.0243,0.1642,0
5826524,0.9996,-0.0094,0.0088,-0.0265,0.0369,0.0351,0.2196,0
5826691,0.9996,-0.0094,0.0088,-0.0265,0.0166,0.0455,0.2249,0
5826858,0.9996,-0.0094,0.0088,-0.0265,0.0095,0.0021,0.1845,0
5827024,0.9996,-0.0094,0.0088,-0.0265,0.0538,0.0040,0.2030,0
5827191,0.9996,-0.0093,0.0088,-0.0265,0.0700,0.0120,0.2478,0
5827358,0.9996,-0.0093,0.0088,-0.0265,0.0351,0.0024,0.1833,0
5827524,0.9996,-0.0093,0.0088,-0.0265,0.0100,0.0227,0.1836,0
5827691,0.9996,-0.0093,0.0088,-0.0265,0.0106,0.0362,0.2257,0
5827858,0.9996,-0.0093,0.0088,-0.0265,0.0334,0.0126,0.2084,0
5828024,0.9996,-0.0093,0.0088,-0.0265,0.0475,-0.0118,0.2173,0
5828191,0.9996,-0.0093,0.0088,-0.0265,0.0629,0.0014,0.2143,0
5828358,0.9996,-0.0093,0.0088,-0.0265,0.0439,0.0049,0.1909,0
5828524,0.9996,-0.0094,0.0088,-0.0265,0.0113,0.0154,0.1842,0
5829191,0.9996,-0.0093,0.0088,-0.0265,0.0258,-0.0169,0.1897,0
5829358,0.9996,-0.0093,0.0088,-0.0265,0.0546,0.0264,0.2267,0
5829524,0.9996,-0.0093,0.0088,-0.0265,0.0321,0.0055,0.2183,0
5829691,0.9996,-0.0093,0.0088,-0.0265,0.0276,0.0011,0.2139,0
5829858,0.9996,-0.0093,0.0088,-0.0265,0.0311,0.0235,0.1960,0
5830024,0.9996,-0.0093,0.0088,-0.0265,0.0583,0.0139,0.2393,0
5830358,0.9996,-0.0093,0.0089,-0.0265,0.0628,0.0025,0.1911,0
5830524,0.9996,-0.0093,0.0089,-0.0265,0.0519,0.0028,0.2214,0
5830691,0.9996,-0.0093,0.0089,-0.0265,-0.0068,-0.0152,0.2178,0
5830858,0.9996,-0.0093,0.0089,-0.0265,0.0053,-0.0017,0.1819,0
5831024,0.9996,-0.0093,0.0089,-0.0265,0.0574,0.0362,0.2120,0
5831191,0.9996,-0.0093,0.0089,-0.0265,0.0513,0.0145,0.2236,0
5831358,0.9996,-0.0093,0.0089,-0.0265,0.0378,-0.0170,0.1862,0
5831524,0.9996,-0.0093,0.0089,-0.0265,0.0421,-0.0046,0.1997,0
5831858,0.9996,-0.0093,0.0088,-0.0265,0.0238,0.0201,0.1966,0
5832024,0.9996,-0.0093,0.0088,-0.0265,0.0333,0.0365,0.2240,0
5832524,0.9996,-0.0093,0.0088,-0.0265,0.0265,-0.0056,0.2094,0
5832691,0.9996,-0.0093,0.0088,-0.0264,0.0536,0.0127,0.1995,0
5832858,0.9996,-0.0093,0.0088,-0.0264,0.0319,0.0246,0.1973,0
5833024,0.9996,-0.0093,0.0088,-0.0265,0.0207,0.0003,0.2193,0
5833191,0.9996,-0.0093,0.0088,-0.0265,0.0588,0.0086,0.2066,0
5833358,0.9996,-0.0093,0.0088,-0.0265,0.0547,0.0059,0.2057,0
5833524,0.9996,-0.0093,0.0088,-0.0265,0.0314,-0.0115,0.2115,0
5834024,0.9996,-0.0093,0.0088,-0.0265,0.0130,0.0157,0.2146,0
5834191,0.9996,-0.0093,0.0088,-0.0265,0.0389,0.0006,0.1760,0
5834358,0.9996,-0.0093,0.0088,-0.0265,0.0434,0.0111,0.2044,0
5834524,0.9996,-0.0093,0.0088,-0.0265,0.0366,0.0054,0.2277,0
5834691,0.9996,-0.0093,0.0088,-0.0265,0.0357,0.0014,0.1836,0
5834858,0.9996,-0.0093,0.0088,-0.0265,0.0405,0.0193,0.2059,0
5835024,0.9996,-0.0093,0.0088,-0.0265,0.0393,0.0235,0.2243,0
5835191,0.9996,-0.0093,0.0088,-0.0265,0.0250,0.0049,0.2104,0
5835358,0.9996,-0.0093,0.0088,-0.0265,0.0280,-0.0076,0.1963,0
5835524,0.9996,-0.0092,0.0088,-0.0265,0.0554,0.0139,0.2106,0
5835691,0.9996,-0.0092,0.0088,-0.0265,0.0472,0.0130,0.2079,0
5835858,0.9996,-0.0093,0.0088,-0.0265,0.0314,-0.0037,0.1914,0
5836024,0.9996,-0.0093,0.0088,-0.0265,0.0272,-0.0002,0.2354,0
5836191,0.9996,-0.0093,0.0088,-0.0265,0.0314,0.0073,0.1882,0
5836358,0.9996,-0.0093,0.0088,-0.0265,0.0335,0.0168,0.1918,0
5836524,0.9996,-0.0093,0.0088,-0.0265,0.0421,-0.0008,0.2477,0
5836691,0.9996,-0.0093,0.0088,-0.0265,0.0351,0.0117,0.1860,0
5836858,0.9996,-0.0094,0.0087,-0.0265,0.0339,-0.0075,0.2130,0
5837024,0.9996,-0.0094,0.0087,-0.0265,0.0404,0.0167,0.2245,0
5837191,0.9996,-0.0094,0.0087,-0.0265,0.0488,0.0214,0.2045,0
5838191,0.9996,-0.0094,0.0087,-0.0265,0.0381,0.0020,0.2139,0
5838358,0.9996,-0.0094,0.0087,-0.0265,0.0250,0.0199,0.2008,0
5838525,0.9996,-0.0094,0.0087,-0.0265,0.0271,-0.0037,0.1834,0
5838691,0.9996,-0.0094,0.0087,-0.0265,0.0355,-0.0165,0.2158,0
5838858,0.9996,-0.0094,0.0087,-0.0265,0.0485,0.0170,0.2268,0
5839025,0.9996,-0.0094,0.0087,-0.0265,0.0372,0.0239,0.1978,0
5839191,0.9996,-0.0094,0.0087,-0.0265,0.0179,0.0049,0.2008,0
5839358,0.9996,-0.0094,0.0087,-0.0265,0.0213,0.0112,0.2304,0
5839691,0.9996,-0.0094,0.0087,-0.0265,0.0479,0.0152,0.2111,0
5839858,0.9996,-0.0094,0.0087,-0.0265,0.0631,0.0169,0.2197,0
5840025,0.9996,-0.0094,0.0087,-0.0265,0.0220,0.0150,0.2176,0
5840191,0.9996,-0.0094,0.0087,-0.0265,0.0221,0.0109,0.2072,0
5840358,0.9996,-0.0094,0.0087,-0.0265,0.0309,-0.0008,0.1854,0
5840525,0.9996,-0.0094,0.0087,-0.0265,0.0306,0.0211,0.2189,0
5840858,0.9996,-0.0093,0.0087,-0.0265,0.0684,0.0004,0.2002,0
5841025,0.9996,-0.0093,0.0087,-0.0265,0.0072,-0.0169,0.2266,0
5841191,0.9996,-0.0093,0.0087,-0.0265,0.0108,0.0255,0.2236,0
5841358,0.9996,-0.0093,0.0087,-0.0265,0.0564,0.0121,0.2107,0
5841525,0.9996,-0.0093,0.0087,-0.0265,0.0144,0.0060,0.2005,0
5841691,0.9996,-0.0093,0.0087,-0.0265,0.0396,-0.0007,0.2183,0
5841858,0.9996,-0.0093,0.0087,-0.0265,0.0523,0.0155,0.1914,0
5842025,0.9996,-0.0093,0.0087,-0.0265,0.0395,0.0159,0.1891,0
5842358,0.9996,-0.0094,0.0087,-0.0265,0.0391,0.0144,0.1907,0
5842525,0.9996,-0.0094,0.0087,-0.0265,0.0413,0.0071,0.1963,0
5842691,0.9996,-0.0094,0.0087,-0.0265,0.0215,0.0026,0.2137,0
5843191,0.9996,-0.0093,0.0087,-0.0265,0.0340,-0.0009,0.2300,0
5843358,0.9996,-0.0094,0.0087,-0.0265,0.0337,-0.0011,0.2073,0
5843525,0.9996,-0.0093,0.0087,-0.0265,0.0183,0.0064,0.1759,0
5843858,0.9996,-0.0093,0.0086,-0.0265,0.0308,0.0155,0.2438,0
5844025,0.9996,-0.0093,0.0087,-0.0265,0.0301,0.0013,0.1876,0
5844191,0.9996,-0.0093,0.0087,-0.0265,0.0427,0.0178,0.1885,0
5844358,0.9996,-0.0093,0.0086,-0.0265,0.0453,-0.0050,0.2334,0
5844525,0.9996,-0.0093,0.0086,-0.0265,0.0573,-0.0004,0.2388,0
5844691,0.9996,-0.0093,0.0086,-0.0265,0.0493,0.0072,0.1848,0
5844858,0.9996,-0.0093,0.0086,-0.0265,0.0241,0.0238,0.2264,0
5845025,0.9996,-0.0093,0.0086,-0.0265,0.0302,0.0145,0.2253,0
5845191,0.9996,-0.0093,0.0086,-0.0265,0.0246,-0.0062,0.1960,0
5845358,0.9996,-0.0093,0.0086,-0.0265,0.0337,-0.0061,0.2162,0
5845525,0.9996,-0.0093,0.0086,-0.0265,0.0508,0.0136,0.2194,0
5845691,0.9996,-0.0093,0.0086,-0.0265,0.0506,0.0006,0.1675,0
5846025,0.9996,-0.0093,0.0086,-0.0266,0.0270,0.0105,0.2165,0
5846191,0.9996,-0.0093,0.0086,-0.0266,0.0338,0.0173,0.1907,0
5846358,0.9996,-0.0093,0.0086,-0.0266,0.0447,0.0115,0.2069,0
5846525,0.9996,-0.0093,0.0086,-0.0266,0.0522,-0.0174,0.2191,0
5846691,0.9996,-0.0093,0.0086,-0.0266,0.0318,0.0070,0.1950,0
5846858,0.9996,-0.0093,0.0086,-0.0266,0.0383,0.0247,0.2172,0
5847525,0.9996,-0.0093,0.0086,-0.0266,0.0539,0.0049,0.2294,0
5848691,0.9996,-0.0093,0.0085,-0.0266,0.0560,-0.0072,0.1722,0
5848858,0.9996,-0.0093,0.0085,-0.0266,0.0451,0.0060,0.2189,0
5849525,0.9996,-0.0093,0.0085,-0.0266,0.0301,0.0189,0.2316,0
5849691,0.9996,-0.0093,0.0085,-0.0266,0.0527,0.0247,0.2177,0
5849858,0.9996,-0.0093,0.0085,-0.0266,0.0357,-0.0094,0.2176,0
5850191,0.9996,-0.0093,0.0085,-0.0266,0.0310,0.0068,0.2064,0
5850358,0.9996,-0.0093,0.0085,-0.0266,0.0313,0.0019,0.2245,0
5850525,0.9996,-0.0093,0.0085,-0.0266,0.0414,0.0122,0.2119,0
5850691,0.9996,-0.0093,0.0085,-0.0266,0.0531,0.0138,0.2437,0
5850858,0.9996,-0.0093,0.0085,-0.0266,0.0342,0.0124,0.2299,0
5851025,0.9996,-0.0093,0.0085,-0.0266,0.0128,-0.0138,0.2299,0
5851191,0.9996,-0.0093,0.0085,-0.0266,0.0230,-0.0007,0.1989,0
5851358,0.9996,-0.0093,0.0085,-0.0266,0.0532,0.0167,0.1869,0
5851525,0.9996,-0.0093,0.0085,-0.0266,0.0478,0.0190,0.2093,0
5851691,0.9996,-0.0093,0.0085,-0.0266,0.0202,-0.0017,0.2250,0
5851858,0.9996,-0.0093,0.0085,-0.0266,0.0162,-0.0091,0.2073,0
5852025,0.9996,-0.0093,0.0085,-0.0266,0.0323,0.0118,0.1797,0
5852191,0.9996,-0.0093,0.0085,-0.0266,0.0313,0.0164,0.1986,0
5852358,0.9996,-0.0092,0.0085,-0.0266,0.0403,0.0058,0.1767,0
5852525,0.9996,-0.0092,0.0085,-0.0266,0.0367,-0.0053,0.2152,0
5852858,0.9996,-0.0093,0.0085,-0.0266,0.0167,0.0267,0.1872,0
5853025,0.9996,-0.0093,0.0085,-0.0266,0.0396,-0.0029,0.2063,0
5853191,0.9996,-0.0092,0.0085,-0.0266,0.0501,-0.0107,0.1986,0
5853358,0.9996,-0.0092,0.0085,-0.0266,0.0328,-0.0031,0.1868,0
5853525,0.9996,-0.0092,0.0084,-0.0266,0.0165,-0.0011,0.2186,0
5853691,0.9996,-0.0092,0.0084,-0.0266,0.0421,0.0291,0.2529,0
5853858,0.9996,-0.0092,0.0084,-0.0266,0.0210,0.0287,0.2067,0
5854025,0.9996,-0.0092,0.0084,-0.0266,0.0059,0.0133,0.1983,0
5854192,0.9996,-0.0092,0.0084,-0.0266,0.0302,-0.0144,0.2080,0
5854358,0.9996,-0.0092,0.0084,-0.0266,0.0628,-0.0119,0.2012,0
5854525,0.9996,-0.0092,0.0084,-0.0266,0.0347,0.0181,0.2036,0
5854692,0.9996,-0.0092,0.0084,-0.0266,0.0214,0.0305,0.2134,0
5855025,0.9996,-0.0092,0.0084,-0.0266,0.0175,-0.0032,0.2150,0
5855192,0.9996,-0.0092,0.0084,-0.0266,0.0393,0.0029,0.2068,0
5855358,0.9996,-0.0093,0.0084,-0.0266,0.0685,0.0148,0.2039,0
5855525,0.9996,-0.0092,0.0084,-0.0266,0.0599,0.0080,0.2170,0
5855692,0.9996,-0.0092,0.0084,-0.0266,0.0173,0.0101,0.2035,0
5855858,0.9996,-0.0092,0.0084,-0.0266,0.0090,0.0307,0.2080,0
5856025,0.9996,-0.0093,0.0084,-0.0266,0.0136,0.0120,0.1864,0
5856192,0.9996,-0.0093,0.0084,-0.0266,0.0486,-0.0163,0.2221,0
5856358,0.9996,-0.0093,0.0084,-0.0266,0.0516,0.0118,0.2047,0
5856525,0.9996,-0.0093,0.0084,-0.0266,0.0531,0.0207,0.2053,0
5856692,0.9996,-0.0093,0.0084,-0.0266,0.0256,0.0037,0.1688,0
5856858,0.9996,-0.0094,0.0085,-0.0266,-0.0004,0.0216,0.1986,0
5857358,0.9996,-0.0094,0.0085,-0.0266,0.0519,-0.0012,0.1869,0
5857525,0.9996,-0.0094,0.0085,-0.0266,0.0515,-0.0050,0.2176,0
5857692,0.9996,-0.0094,0.0085,-0.0266,0.0289,0.0130,0.2246,0
5858025,0.9996,-0.0094,0.0085,-0.0266,0.0151,0.0323,0.1872,0
5858192,0.9996,-0.0094,0.0085,-0.0266,0.0251,0.0274,0.2175,0
5858525,0.9996,-0.0094,0.0085,-0.0266,0.0492,-0.0093,0.1975,0
5858692,0.9996,-0.0094,0.0085,-0.0266,0.0457,0.0274,0.2223,0
5858858,0.9996,-0.0094,0.0085,-0.0266,0.0033,0.0414,0.1928,0
5859192,0.9996,-0.0094,0.0085,-0.0266,0.0254,0.0007,0.2026,0
5859358,0.9996,-0.0095,0.0084,-0.0266,0.0598,0.0143,0.2299,0
5859525,0.9996,-0.0095,0.0084,-0.0266,0.0684,0.0198,0.2010,0
5859692,0.9996,-0.0095,0.0084,-0.0266,0.0444,0.0193,0.2412,0
5859858,0.9996,-0.0095,0.0084,-0.0266,0.0002,0.0055,0.2189,0
5860025,0.9996,-0.0095,0.0084,-0.0266,0.0011,0.0299,0.1996,0
5860192,0.9996,-0.0095,0.0084,-0.0266,0.0293,0.0241,0.1875,0
5860358,0.9996,-0.0095,0.0084,-0.0266,0.0470,-0.0030,0.1978,0
5860525,0.9996,-0.0095,0.0084,-0.0266,0.0474,-0.0148,0.2197,0
5860692,0.9996,-0.0095,0.0084,-0.0266,0.0381,0.0219,0.1789,0
5860858,0.9996,-0.0095,0.0084,-0.0266,0.0018,0.0159,0.2124,0
5861025,0.9996,-0.0095,0.0084,-0.0266,-0.0057,0.0225,0.2209,0
5861192,0.9996,-0.0095,0.0084,-0.0266,0.0436,0.0138,0.2179,0
5861358,0.9996,-0.0095,0.0084,-0.0266,0.0402,0.0064,0.2286,0
5861525,0.9996,-0.0095,0.0084,-0.0266,0.0564,-0.0169,0.2209,0
5861692,0.9996,-0.0095,0.0084,-0.0266,0.0487,0.0108,0.2250,0
5861858,0.9996,-0.0095,0.0084,-0.0266,0.0185,0.0409,0.2002,0
5862025,0.9996,-0.0094,0.0084,-0.0266,0.0071,0.0282,0.2145,0
5862192,0.9996,-0.0094,0.0084,-0.0266,0.0394,0.0159,0.1922,0
5862358,0.9996,-0.0095,0.0084,-0.0266,0.0579,0.0005,0.1921,0
5862525,0.9996,-0.0094,0.0084,-0.0266,0.0533,0.0039,0.2244,0
5862692,0.9996,-0.0095,0.0084,-0.0266,0.0313,-0.0049,0.1741,0
5862858,0.9996,-0.0094,0.0084,-0.0266,0.0180,0.0361,0.2147,0
5863025,0.9996,-0.0094,0.0084,-0.0266,0.0121,0.0367,0.2356,0
5863192,0.9996,-0.0094,0.0084,-0.0266,0.0006,0.0606,0.2666,0
5863358,0.9996,-0.0094,0.0084,-0.0266,0.0926,-0.0330,0.1660,0
5863525,0.9996,-0.0094,0.0085,-0.0266,0.0280,-0.0081,0.1402,0
5863692,0.9996,-0.0094,0.0084,-0.0266,0.0854,0.0251,0.2626,0
5863858,0.9996,-0.0094,0.0084,-0.0266,-0.0089,0.0099,0.1857,0
5864025,0.9996,-0.0094,0.0085,-0.0266,0.0050,0.0449,0.1999,0
5864192,0.9996,-0.0094,0.0085,-0.0266,0.0630,0.0079,0.2403,0
5864358,0.9996,-0.0094,0.0085,-0.0266,0.0589,-0.0105,0.1974,0
5864525,0.9996,-0.0094,0.0085,-0.0266,0.0330,0.0041,0.1865,0
5864858,0.9996,-0.0094,0.0085,-0.0266,0.0105,0.0178,0.2175,0
5865025,0.9996,-0.0094,0.0084,-0.0266,0.0111,0.0419,0.2006,0
5865192,0.9996,-0.0094,0.0085,-0.0266,0.0324,0.0330,0.2148,0
5865358,0.9996,-0.0094,0.0085,-0.0266,0.0406,-0.0020,0.2160,0
5865525,0.9996,-0.0094,0.0085,-0.0266,0.0491,-0.0085,0.1863,0
5865692,0.9996,-0.0094,0.0085,-0.0266,0.0347,0.0110,0.2242,0
5865858,0.9996,-0.0094,0.0085,-0.0266,0.0143,0.0273,0.2309,0
5866025,0.9996,-0.0094,0.0085,-0.0266,0.0034,0.0050,0.1988,0
5866192,0.9996,-0.0094,0.0085,-0.0266,0.0081,0.0054,0.2160,0
5866358,0.9996,-0.0094,0.0085,-0.0266,0.0603,0.0204,0.2042,0
5866525,0.9996,-0.0094,0.0085,-0.0266,0.0594,0.0039,0.1966,0
5866692,0.9996,-0.0094,0.0085,-0.0266,0.0251,-0.0061,0.1898,0
5867025,0.9996,-0.0094,0.0085,-0.0266,0.0057,0.0305,0.2052,0
5867192,0.9996,-0.0094,0.0085,-0.0266,0.0189,0.0061,0.1841,0
5867358,0.9996,-0.0094,0.0085,-0.0266,0.0465,-0.0003,0.2056,0
5867525,0.9996,-0.0094,0.0085,-0.0266,0.0413,0.0079,0.2353,0
5867692,0.9996,-0.0094,0.0085,-0.0266,0.0458,0.0047,0.2051,0
5867858,0.9996,-0.0094,0.0085,-0.0266,0.0215,0.0126,0.2157,0
5868025,0.9996,-0.0094,0.0085,-0.0266,0.0129,0.0298,0.1924,0
5868192,0.9996,-0.0094,0.0085,-0.0266,0.0355,0.0149,0.1789,0
5868358,0.9996,-0.0094,0.0085,-0.0266,0.0412,-0.0080,0.1763,0
5868525,0.9996,-0.0094,0.0085,-0.0266,0.0555,0.0009,0.2212,0
5868692,0.9996,-0.0094,0.0085,-0.0266,0.0363,0.0153,0.1933,0
5868858,0.9996,-0.0094,0.0085,-0.0266,0.0105,0.0217,0.2269,0
5869025,0.9996,-0.0094,0.0085,-0.0266,0.0010,0.0326,0.2084,0
5869192,0.9996,-0.0094,0.0085,-0.0266,0.0272,0.0257,0.2186,0
5869358,0.9996,-0.0094,0.0085,-0.0266,0.0422,-0.0073,0.2280,0
5869525,0.9996,-0.0094,0.0085,-0.0266,0.0449,-0.0098,0.2341,0
5869692,0.9996,-0.0094,0.0085,-0.0266,0.0323,0.0048,0.2000,0
5869858,0.9996,-0.0094,0.0085,-0.0266,0.0306,0.0232,0.1945,0
5870025,0.9996,-0.0094,0.0085,-0.0266,0.0135,0.0224,0.2066,0
5870192,0.9996,-0.0094,0.0085,-0.0266,0.0246,0.0142,0.1954,0
5870358,0.9996,-0.0094,0.0085,-0.0266,0.0518,0.0032,0.2004,0
5870525,0.9996,-0.0094,0.0084,-0.0266,0.0291,-0.0030,0.2064,0
5870692,0.9996,-0.0094,0.0085,-0.0266,0.0287,0.0065,0.2207,0
5870859,0.9996,-0.0094,0.0084,-0.0266,0.0264,0.0144,0.2142,0
5871192,0.9996,-0.0094,0.0084,-0.0266,0.0212,0.0219,0.1933,0
5871359,0.9996,-0.0094,0.0084,-0.0266,0.0491,0.0129,0.1989,0
5871525,0.9996,-0.0094,0.0084,-0.0266,0.0509,-0.0025,0.2081,0
5871692,0.9996,-0.0094,0.0084,-0.0266,0.0403,-0.0024,0.1943,0
5871859,0.9996,-0.0094,0.0084,-0.0266,0.0150,0.0015,0.2016,0
5872025,0.9996,-0.0094,0.0084,-0.0266,0.0129,0.0161,0.2148,0
5872192,0.9996,-0.0094,0.0084,-0.0266,0.0291,0.0155,0.1903,0
5872359,0.9996,-0.0094,0.0085,-0.0266,0.0397,0.0255,0.1872,0
5872525,0.9996,-0.0094,0.0085,-0.0266,0.0406,0.0044,0.2025,0
5872692,0.9996,-0.0094,0.0085,-0.0266,0.0300,-0.0013,0.2084,0
5872859,0.9996,-0.0094,0.0085,-0.0266,0.0132,0.0108,0.1914,0
5873025,0.9996,-0.0094,0.0085,-0.0266,0.0259,0.0119,0.2015,0
5873192,0.9996,-0.0094,0.0085,-0.0266,0.0353,0.0230,0.1906,0
5873359,0.9996,-0.0094,0.0084,-0.0266,0.0497,0.0144,0.1906,0
5873525,0.9996,-0.0094,0.0084,-0.0266,0.0342,0.0082,0.2330,0
5873692,0.9996,-0.0094,0.0084,-0.0266,0.0308,-0.0047,0.1957,0
5873859,0.9996,-0.0094,0.0084,-0.0266,0.0248,0.0161,0.1763,0
5874025,0.9996,-0.0094,0.0084,-0.0266,0.0192,0.0294,0.1976,0
5874192,0.9996,-0.0094,0.0084,-0.0266,0.0192,0.0087,0.2018,0
5874359,0.9996,-0.0094,0.0084,-0.0266,0.0434,0.0097,0.1970,0
5874525,0.9996,-0.0094,0.0084,-0.0266,0.0293,0.0079,0.1995,0
5874692,0.9996,-0.0094,0.0084,-0.0266,0.0305,0.0077,0.1727,0
5874859,0.9996,-0.0094,0.0084,-0.0266,0.0319,0.0076,0.2122,0
5875025,0.9996,-0.0094,0.0084,-0.0266,0.0246,0.0158,0.2049,0
5875692,0.9996,-0.0094,0.0084,-0.0266,0.0353,0.0180,0.2151,0
5875859,0.9996,-0.0094,0.0084,-0.0266,0.0209,0.0073,0.1878,0
5876192,0.9996,-0.0094,0.0084,-0.0266,0.0231,0.0043,0.2055,0
5876359,0.9996,-0.0094,0.0084,-0.0266,0.0452,0.0188,0.1998,0
5876525,0.9996,-0.0094,0.0084,-0.0266,0.0430,-0.0031,0.2105,0
5876859,0.9996,-0.0095,0.0084,-0.0266,0.0033,0.0085,0.1833,0
5877025,0.9996,-0.0095,0.0084,-0.0266,0.0131,0.0157,0.2212,0
5877192,0.9996,-0.0095,0.0084,-0.0266,0.0138,0.0113,0.2049,0
5877692,0.9996,-0.0095,0.0083,-0.0266,0.0326,0.0089,0.1964,0
5877859,0.9996,-0.0095,0.0083,-0.0266,0.0349,0.0289,0.2017,0
5878025,0.9996,-0.0095,0.0083,-0.0266,0.0381,0.0276,0.2078,0
5878359,0.9996,-0.0095,0.0083,-0.0267,0.0223,0.0085,0.2130,0
5878525,0.9996,-0.0095,0.0083,-0.0267,0.0442,-0.0086,0.2060,0
5878692,0.9996,-0.0095,0.0083,-0.0267,0.0405,0.0114,0.2027,0
5879025,0.9996,-0.0095,0.0083,-0.0267,0.0151,0.0151,0.1947,0
5879192,0.9996,-0.0095,0.0083,-0.0267,0.0189,0.0182,0.1897,0
5879359,0.9996,-0.0095,0.0083,-0.0267,0.0426,0.0207,0.2014,0
5879859,0.9996,-0.0095,0.0083,-0.0266,0.0239,0.0034,0.1863,0
5880025,0.9996,-0.0095,0.0083,-0.0267,0.0227,0.0224,0.2132,0
5880192,0.9996,-0.0095,0.0083,-0.0267,0.0302,0.0228,0.2108,0
5880525,0.9996,-0.0095,0.0083,-0.0266,0.0279,-0.0098,0.2249,0
5880692,0.9996,-0.0095,0.0083,-0.0266,0.0334,-0.0026,0.1998,0
5880859,0.9996,-0.0095,0.0083,-0.0266,0.0226,0.0055,0.2086,0
5881025,0.9996,-0.0095,0.0083,-0.0266,0.0208,0.0132,0.2299,0
5881192,0.9996,-0.0095,0.0083,-0.0266,0.0298,0.0230,0.1997,0
5881359,0.9996,-0.0095,0.0083,-0.0266,0.0149,0.0081,0.1848,0
5881525,0.9996,-0.0095,0.0083,-0.0266,0.0464,-0.0040,0.2307,0
5881692,0.9996,-0.0095,0.0083,-0.0266,0.0251,-0.0034,0.2070,0
5881859,0.9996,-0.0095,0.0083,-0.0266,0.0343,0.0157,0.1868,0
5882025,0.9996,-0.0095,0.0083,-0.0266,0.0442,0.0211,0.2288,0
5882192,0.9996,-0.0095,0.0083,-0.0266,0.0292,0.0062,0.2188,0
5882359,0.9996,-0.0095,0.0083,-0.0266,0.0170,0.0059,0.1883,0
5882525,0.9996,-0.0095,0.0083,-0.0266,0.0377,0.0060,0.2108,0
5882692,0.9996,-0.0095,0.0083,-0.0266,0.0388,0.0075,0.1914,0
5882859,0.9996,-0.0095,0.0083,-0.0266,0.0153,-0.0043,0.1912,0
5883192,0.9996,-0.0095,0.0083,-0.0266,0.0231,0.0344,0.2055,0
5883359,0.9996,-0.0095,0.0083,-0.0266,0.0316,0.0245,0.2067,0
5883525,0.9996,-0.0095,0.0083,-0.0266,0.0277,0.0149,0.2237,0
5883692,0.9996,-0.0095,0.0083,-0.0266,0.0256,0.0070,0.2077,0
5883859,0.9996,-0.0095,0.0083,-0.0266,0.0092,0.0047,0.1840,0
5884025,0.9996,-0.0095,0.0083,-0.0266,0.0327,0.0039,0.2225,0
5884192,0.9996,-0.0095,0.0083,-0.0266,0.0210,0.0150,0.1906,0
5884359,0.9996,-0.0095,0.0083,-0.0266,0.0304,0.0290,0.2042,0
5884525,0.9996,-0.0095,0.0083,-0.0266,0.0351,0.0095,0.1924,0
5884692,0.9996,-0.0095,0.0083,-0.0266,0.0260,-0.0016,0.2085,0
5884859,0.9996,-0.0095,0.0083,-0.0266,0.0190,0.0110,0.2201,0
5885025,0.9996,-0.0095,0.0083,-0.0266,0.0126,0.0187,0.2082,0
5885192,0.9996,-0.0095,0.0083,-0.0266,0.0112,0.0155,0.1965,0
5885359,0.9996,-0.0095,0.0083,-0.0266,0.0241,0.0264,0.2123,0
5885525,0.9996,-0.0095,0.0083,-0.0266,0.0277,0.0154,0.2061,0
5885692,0.9996,-0.0095,0.0083,-0.0266,0.0297,0.0097,0.2020,0
5885859,0.9996,-0.0095,0.0083,-0.0266,0.0254,-0.0027,0.2020,0
5886025,0.9996,-0.0095,0.0083,-0.0266,0.0264,0.0178,0.1875,0
5886692,0.9996,-0.0095,0.0083,-0.0266,0.0344,0.0006,0.1852,0
5886859,0.9996,-0.0095,0.0083,-0.0266,0.0089,0.0064,0.1987,0
5887025,0.9996,-0.0095,0.0083,-0.0266,0.0145,0.0052,0.1851,0
5887692,0.9996,-0.0095,0.0083,-0.0266,0.0206,0.0059,0.1915,0
5887859,0.9996,-0.0095,0.0083,-0.0266,0.0013,-0.0053,0.1851,0
5888026,0.9996,-0.0095,0.0083,-0.0266,0.0135,0.0154,0.2185,0
5888192,0.9996,-0.0095,0.0083,-0.0266,0.0498,0.0153,0.1894,0
5888359,0.9996,-0.0095,0.0083,-0.0266,0.0466,-0.0059,0.2155,0
5888526,0.9996,-0.0095,0.0083,-0.0266,0.0292,-0.0019,0.2303,0
5888859,0.9996,-0.0095,0.0083,-0.0266,0.0055,0.0131,0.1993,0
5889026,0.9996,-0.0095,0.0083,-0.0266,-0.0102,0.0068,0.1788,0
5889192,0.9996,-0.0095,0.0083,-0.0266,0.0408,0.0161,0.1914,0
5889359,0.9996,-0.0095,0.0083,-0.0266,0.0469,0.0140,0.2088,0
5889526,0.9996,-0.0095,0.0083,-0.0266,0.0464,-0.0021,0.2068,0
5889692,0.9996,-0.0095,0.0083,-0.0266,0.0267,0.0120,0.1932,0
5889859,0.9996,-0.0095,0.0083,-0.0267,0.0097,0.0239,0.2132,0
5890026,0.9996,-0.0095,0.0083,-0.0266,0.0138,0.0257,0.2087,0
5890192,0.9996,-0.0095,0.0083,-0.0267,0.0270,0.0141,0.1938,0
5890359,0.9996,-0.0095,0.0082,-0.0266,0.0384,0.0065,0.2064,0
5890526,0.9996,-0.0095,0.0083,-0.0266,0.0318,-0.0030,0.1959,0
5890692,0.9996,-0.0095,0.0083,-0.0267,0.0204,0.0125,0.2064,0
5890859,0.9996,-0.0095,0.0082,-0.0267,0.0100,0.0527,0.2050,0
5891026,0.9996,-0.0095,0.0082,-0.0267,0.0196,0.0204,0.2090,0
5891192,0.9996,-0.0095,0.0083,-0.0266,0.0278,0.0095,0.2245,0
5891359,0.9996,-0.0095,0.0082,-0.0266,0.0540,-0.0076,0.2130,0
5891526,0.9996,-0.0095,0.0082,-0.0266,0.0492,0.0064,0.1823,0
5891692,0.9996,-0.0095,0.0082,-0.0266,0.0195,0.0075,0.1984,0
5891859,0.9996,-0.0095,0.0082,-0.0266,0.0046,0.0087,0.2200,0
5892026,0.9996,-0.0095,0.0082,-0.0266,0.0222,0.0215,0.2123,0
5892192,0.9996,-0.0095,0.0082,-0.0266,0.0351,0.0155,0.2025,0
5892526,0.9996,-0.0095,0.0082,-0.0266,0.0342,0.0091,0.2045,0
5892692,0.9996,-0.0095,0.0082,-0.0266,0.0117,0.0073,0.1872,0
5892859,0.9996,-0.0095,0.0083,-0.0266,-0.0015,0.0259,0.2174,0
5893026,0.9996,-0.0095,0.0083,-0.0266,0.0169,0.0301,0.1766,0
5893192,0.9996,-0.0095,0.0083,-0.0266,0.0285,0.0126,0.1859,0
5893359,0.9996,-0.0095,0.0083,-0.0266,0.0487,-0.0190,0.2122,0
5893526,0.9996,-0.0095,0.0082,-0.0266,0.0370,0.0030,0.2177,0
5893692,0.9996,-0.0095,0.0083,-0.0266,0.0296,0.0393,0.1934,0
5893859,0.9996,-0.0095,0.0083,-0.0266,0.0017,0.0380,0.2104,0
5894026,0.9996,-0.0095,0.0083,-0.0266,0.0099,0.0146,0.2036,0
5894192,0.9996,-0.0095,0.0082,-0.0266,0.0258,0.0041,0.1740,0
5894359,0.9996,-0.0095,0.0083,-0.0266,0.0439,-0.0098,0.2000,0
5894526,0.9996,-0.0095,0.0083,-0.0266,0.0397,0.0045,0.1956,0
5894692,0.9996,-0.0095,0.0082,-0.0266,0.0215,0.0167,0.2058,0
5894859,0.9996,-0.0095,0.0082,-0.0266,-0.0073,0.0256,0.2154,0
5895026,0.9996,-0.0095,0.0082,-0.0266,0.0042,0.0120,0.1737,0
5895192,0.9996,-0.0095,0.0082,-0.0266,0.0447,0.0299,0.2103,0
5895359,0.9996,-0.0095,0.0082,-0.0266,0.0528,0.0063,0.2327,0
5895526,0.9996,-0.0095,0.0082,-0.0266,0.0276,-0.0071,0.2004,0
5895692,0.9996,-0.0095,0.0082,-0.0266,0.0118,0.0120,0.1779,0
5895859,0.9996,-0.0095,0.0082,-0.0266,-0.0026,0.0269,0.2038,0
5896026,0.9996,-0.0095,0.0082,-0.0266,0.0226,0.0443,0.2142,0
5896192,0.9996,-0.0095,0.0082,-0.0266,0.0419,0.0190,0.2016,0
5896359,0.9996,-0.0095,0.0082,-0.0266,0.0396,-0.0155,0.2200,0
5896526,0.9996,-0.0095,0.0082,-0.0266,0.0362,-0.0046,0.1950,0
5896692,0.9996,-0.0095,0.0082,-0.0266,0.0121,0.0236,0.2006,0
5896859,0.9996,-0.0095,0.0082,-0.0267,0.0028,0.0457,0.2278,0
5897026,0.9996,-0.0095,0.0082,-0.0267,0.0191,0.0100,0.1896,0
5897192,0.9996,-0.0095,0.0082,-0.0267,0.0338,0.0144,0.2007,0
5897359,0.9996,-0.0095,0.0082,-0.0267,0.0484,-0.0065,0.2075,0
5897526,0.9996,-0.0095,0.0082,-0.0267,0.0464,0.0015,0.2080,0
5897692,0.9996,-0.0095,0.0082,-0.0267,0.0386,0.0127,0.1978,0
5897859,0.9996,-0.0095,0.0082,-0.0267,-0.0027,0.0129,0.2109,0
5898026,0.9996,-0.0095,0.0082,-0.0267,0.0180,0.0103,0.1995,0
5898192,0.9996,-0.0095,0.0082,-0.0267,0.0375,0.0104,0.1850,0
5898359,0.9996,-0.0095,0.0082,-0.0267,0.0449,0.0031,0.2211,0
5898526,0.9996,-0.0095,0.0082,-0.0267,0.0257,0.0110,0.2132,0
5898692,0.9996,-0.0095,0.0082,-0.0267,0.0103,0.0140,0.1732,0
5898859,0.9996,-0.0095,0.0082,-0.0266,-0.0039,0.0129,0.2202,0
5899026,0.9996,-0.0095,0.0082,-0.0266,0.0308,0.0176,0.1955,0
5899192,0.9996,-0.0095,0.0082,-0.0266,0.0400,0.0242,0.2075,0
5899692,0.9996,-0.0095,0.0082,-0.0266,0.0222,0.0202,0.2121,0
5899859,0.9996,-0.0095,0.0081,-0.0266,0.0109,0.0179,0.2174,0
5900026,0.9996,-0.0095,0.0081,-0.0266,0.0152,0.0130,0.2085,0
5900192,0.9996,-0.0095,0.0081,-0.0266,0.0285,0.0146,0.1893,0
5900359,0.9996,-0.0095,0.0081,-0.0266,0.0365,0.0159,0.1999,0
5900526,0.9996,-0.0095,0.0081,-0.0266,0.0303,0.0145,0.2164,0
5900859,0.9996,-0.0095,0.0082,-0.0266,0.0173,0.0296,0.1934,0
5901026,0.9996,-0.0095,0.0082,-0.0266,0.0162,0.0195,0.2009,0
5901192,0.9996,-0.0095,0.0082,-0.0266,0.0187,0.0083,0.1956,0
5901692,0.9996,-0.0095,0.0082,-0.0266,0.0200,0.0203,0.2084,0
5901859,0.9996,-0.0095,0.0082,-0.0266,0.0086,0.0024,0.2281,0
5902026,0.9996,-0.0095,0.0082,-0.0266,0.0095,0.0168,0.2086,0
5902359,0.9996,-0.0095,0.0082,-0.0266,0.0252,-0.0029,0.2027,0
5902526,0.9996,-0.0095,0.0082,-0.0266,0.0155,-0.0039,0.1968,0
5902692,0.9996,-0.0095,0.0081,-0.0266,0.0334,0.0130,0.1800,0
5903026,0.9996,-0.0095,0.0081,-0.0266,0.0285,0.0191,0.2222,0
5903192,0.9996,-0.0095,0.0081,-0.0266,0.0430,0.0247,0.2145,0
5903359,0.9996,-0.0095,0.0082,-0.0266,0.0281,0.0176,0.2211,0
5903859,0.9996,-0.0095,0.0081,-0.0266,0.0214,0.0266,0.1831,0
5904026,0.9996,-0.0095,0.0081,-0.0266,0.0177,0.0159,0.1831,0
5904193,0.9996,-0.0095,0.0081,-0.0266,0.0219,0.0113,0.1940,0
5904526,0.9996,-0.0095,0.0081,-0.0266,0.0127,0.0039,0.2219,0
5904693,0.9996,-0.0096,0.0081,-0.0266,0.0192,0.0115,0.1987,0
5904859,0.9996,-0.0096,0.0081,-0.0266,0.0195,0.0069,0.2096,0
5905026,0.9996,-0.0096,0.0081,-0.0266,0.0331,0.0228,0.2141,0
5905193,0.9996,-0.0096,0.0081,-0.0266,0.0188,0.0060,0.2088,0
5905359,0.9996,-0.0096,0.0081,-0.0266,0.0214,0.0149,0.2077,0
5905859,0.9996,-0.0096,0.0081,-0.0266,0.0269,0.0134,0.2117,0
5906026,0.9996,-0.0096,0.0081,-0.0266,0.0205,0.0203,0.2015,0
5906193,0.9996,-0.0096,0.0081,-0.0266,0.0211,0.0257,0.2205,0
5907193,0.9996,-0.0095,0.0081,-0.0266,0.0256,0.0234,0.2321,0
5907359,0.9996,-0.0095,0.0081,-0.0266,0.0026,0.0242,0.1927,0
5907526,0.9996,-0.0095,0.0081,-0.0266,-0.0071,0.0015,0.1753,0
5907693,0.9996,-0.0095,0.0081,-0.0266,0.0082,-0.0173,0.2011,0
5907859,0.9996,-0.0096,0.0081,-0.0266,0.0364,0.0154,0.2197,0
5908026,0.9996,-0.0096,0.0081,-0.0266,0.0515,0.0310,0.1894,0
5908193,0.9996,-0.0096,0.0081,-0.0266,0.0126,0.0115,0.2085,0
5908359,0.9996,-0.0096,0.0081,-0.0266,0.0029,-0.0222,0.2221,0
5908526,0.9996,-0.0096,0.0081,-0.0266,0.0389,0.0082,0.2187,0
5908693,0.9996,-0.0096,0.0081,-0.0266,0.0380,0.0285,0.1718,0
5908859,0.9996,-0.0096,0.0081,-0.0266,0.0385,0.0247,0.2176,0
5909026,0.9996,-0.0096,0.0081,-0.0266,0.0107,0.0267,0.2074,0
5909193,0.9996,-0.0096,0.0081,-0.0266,0.0056,0.0229,0.1870,0
5909359,0.9996,-0.0096,0.0081,-0.0266,0.0153,0.0206,0.2075,0
5909526,0.9996,-0.0096,0.0081,-0.0266,0.0519,0.0069,0.2200,0
5909693,0.9996,-0.0096,0.0081,-0.0266,0.0427,0.0016,0.1976,0
5909859,0.9996,-0.0096,0.0081,-0.0266,0.0216,0.0300,0.1976,0
5910026,0.9996,-0.0096,0.0081,-0.0266,-0.0003,0.0166,0.1869,0
5910193,0.9996,-0.0096,0.0081,-0.0266,0.0042,0.0089,0.2194,0
5910359,0.9996,-0.0096,0.0081,-0.0266,0.0268,0.0203,0.2231,0
5910526,0.9996,-0.0096,0.0081,-0.0266,0.0467,0.0138,0.2091,0
5910693,0.9996,-0.0096,0.0081,-0.0266,0.0366,0.0043,0.1842,0
5910859,0.9996,-0.0096,0.0081,-0.0266,0.0210,0.0043,0.2100,0
5911026,0.9996,-0.0096,0.0081,-0.0266,0.0182,0.0312,0.2193,0
5911359,0.9996,-0.0096,0.0081,-0.0266,0.0136,0.0129,0.2032,0
5911526,0.9996,-0.0096,0.0081,-0.0266,0.0208,0.0042,0.2002,0
5911693,0.9996,-0.0096,0.0081,-0.0266,0.0221,0.0058,0.1903,0
5911859,0.9996,-0.0096,0.0081,-0.0266,0.0400,0.0179,0.2016,0
5912026,0.9996,-0.0096,0.0081,-0.0266,0.0290,0.0203,0.2232,0
5912193,0.9996,-0.0096,0.0081,-0.0266,0.0096,0.0163,0.2176,0
5912359,0.9996,-0.0096,0.0081,-0.0266,-0.0063,-0.0054,0.1920,0
5912526,0.9996,-0.0096,0.0081,-0.0266,0.0293,-0.0030,0.1757,0
5912693,0.9996,-0.0096,0.0081,-0.0266,0.0272,0.0041,0.1887,0
5912859,0.9996,-0.0096,0.0081,-0.0266,0.0289,0.0189,0.2205,0
5913026,0.9996,-0.0096,0.0081,-0.0266,0.0143,0.0253,0.2075,0
5913193,0.9996,-0.0096,0.0081,-0.0266,0.0044,0.0158,0.2124,0
5913526,0.9996,-0.0096,0.0080,-0.0266,0.0525,0.0138,0.2581,0
5913693,0.9996,-0.0096,0.0080,-0.0266,0.0566,0.0173,0.2057,0
5913859,0.9996,-0.0096,0.0080,-0.0266,0.0123,0.0074,0.1507,0
5914026,0.9996,-0.0096,0.0080,-0.0266,-0.0233,-0.0173,0.2220,0
5914193,0.9996,-0.0096,0.0080,-0.0266,0.0152,-0.0027,0.2293,0
5914359,0.9996,-0.0096,0.0080,-0.0266,0.0583,0.0575,0.2150,0
5914526,0.9996,-0.0096,0.0080,-0.0266,0.0397,0.0213,0.2139,0
5914693,0.9996,-0.0096,0.0080,-0.0266,0.0157,-0.0003,0.2322,0
5915026,0.9996,-0.0096,0.0080,-0.0266,-0.0141,0.0261,0.2193,0
5915193,0.9996,-0.0096,0.0080,-0.0266,0.0322,0.0172,0.2331,0
5915359,0.9996,-0.0096,0.0080,-0.0266,0.0663,0.0419,0.2287,0
5915526,0.9996,-0.0096,0.0080,-0.0266,0.0237,0.0116,0.1842,0
5915693,0.9996,-0.0096,0.0080,-0.0266,0.0022,-0.0360,0.1758,0
5915859,0.9996,-0.0096,0.0080,-0.0266,0.0181,-0.0030,0.1976,0
5916026,0.9996,-0.0096,0.0080,-0.0266,0.0524,0.0564,0.2212,0
5916193,0.9996,-0.0096,0.0080,-0.0266,0.0177,0.0230,0.2147,0
5916359,0.9996,-0.0096,0.0080,-0.0266,-0.0158,-0.0441,0.1961,0
5916526,0.9996,-0.0096,0.0080,-0.0266,0.0193,-0.0053,0.2062,0
5916693,0.9996,-0.0096,0.0080,-0.0266,0.0439,0.0181,0.1742,0
5916859,0.9996,-0.0096,0.0081,-0.0267,0.0472,0.0342,0.2144,0
5917026,0.9996,-0.0096,0.0081,-0.0267,0.0248,0.0240,0.2183,0
5917193,0.9996,-0.0096,0.0081,-0.0267,-0.0077,-0.0001,0.2030,0
5917359,0.9996,-0.0096,0.0081,-0.0267,0.0045,-0.0005,0.1867,0
5917526,0.9996,-0.0096,0.0081,-0.0267,0.0390,0.0203,0.2066,0
5917693,0.9996,-0.0096,0.0081,-0.0267,0.0435,0.0354,0.2283,0
5917859,0.9996,-0.0096,0.0081,-0.0267,0.0184,0.0158,0.2012,0
5918026,0.9996,-0.0096,0.0081,-0.0267,-0.0031,0.0127,0.1870,0
5918193,0.9996,-0.0096,0.0081,-0.0267,-0.0014,0.0131,0.2142,0
5918359,0.9996,-0.0096,0.0081,-0.0267,0.0248,0.0210,0.2103,0
5918526,0.9996,-0.0096,0.0081,-0.0268,0.0347,0.0275,0.2230,0
5918693,0.9996,-0.0096,0.0081,-0.0268,0.0278,0.0024,0.1905,0
5918859,0.9996,-0.0096,0.0081,-0.0268,0.0282,0.0012,0.1963,0
5919193,0.9996,-0.0096,0.0081,-0.0268,0.0173,0.0160,0.2099,0
5919359,0.9996,-0.0096,0.0081,-0.0268,0.0299,0.0432,0.2195,0
5919526,0.9996,-0.0096,0.0081,-0.0268,0.0288,0.0056,0.1982,0
5919693,0.9996,-0.0096,0.0081,-0.0268,0.0202,-0.0251,0.1962,0
5919859,0.9996,-0.0096,0.0081,-0.0268,0.0375,-0.0005,0.2097,0
5920026,0.9996,-0.0096,0.0081,-0.0268,0.0297,0.0427,0.1912,0
5920193,0.9996,-0.0096,0.0081,-0.0268,0.0077,0.0388,0.2332,0
5920359,0.9996,-0.0096,0.0081,-0.0268,0.0252,-0.0043,0.2081,0
5920526,0.9996,-0.0096,0.0081,-0.0268,0.0292,-0.0099,0.2118,0
5920693,0.9996,-0.0096,0.0080,-0.0268,0.0468,0.0141,0.1970,0
5920860,0.9996,-0.0096,0.0080,-0.0268,0.0278,0.0416,0.2162,0
5921026,0.9996,-0.0096,0.0080,-0.0268,-0.0122,0.0382,0.2020,0
5921193,0.9996,-0.0096,0.0080,-0.0268,-0.0197,0.0034,0.1774,0
5921360,0.9996,-0.0096,0.0080,-0.0267,0.0233,0.0007,0.2176,0
5921526,0.9996,-0.0096,0.0080,-0.0268,0.0746,0.0227,0.2213,0
5921693,0.9996,-0.0096,0.0080,-0.0267,0.0397,-0.0100,0.1808,0
5921860,0.9996,-0.0096,0.0080,-0.0267,0.0017,0.0064,0.2001,0
5922026,0.9996,-0.0096,0.0080,-0.0268,-0.0185,0.0190,0.1880,0
5922193,0.9996,-0.0096,0.0080,-0.0268,0.0304,0.0063,0.2367,0
5922360,0.9996,-0.0096,0.0080,-0.0268,0.0548,0.0295,0.2068,0
5922526,0.9996,-0.0096,0.0080,-0.0268,0.0438,0.0071,0.1930,0
5922693,0.9996,-0.0096,0.0080,-0.0268,0.0158,-0.0075,0.2417,0
5922860,0.9996,-0.0096,0.0080,-0.0268,0.0032,0.0082,0.2122,0
5923026,0.9996,-0.0096,0.0080,-0.0268,0.0017,0.0562,0.1851,0
5923360,0.9996,-0.0096,0.0080,-0.0268,0.0179,-0.0046,0.1908,0
5923526,0.9996,-0.0096,0.0080,-0.0268,0.0250,-0.0265,0.2169,0
5923693,0.9996,-0.0096,0.0080,-0.0268,0.0381,0.0076,0.2046,0
5923860,0.9996,-0.0096,0.0080,-0.0268,0.0261,0.0433,0.2304,0
5924026,0.9996,-0.0096,0.0080,-0.0268,0.0006,0.0299,0.2220,0
5924193,0.9996,-0.0096,0.0080,-0.0268,-0.0188,0.0144,0.2017,0
5924360,0.9996,-0.0096,0.0080,-0.0268,0.0040,0.0023,0.1923,0
5924526,0.9996,-0.0096,0.0080,-0.0268,0.0390,0.0079,0.1878,0
5924693,0.9996,-0.0096,0.0080,-0.0268,0.0426,0.0040,0.2346,0
5924860,0.9996,-0.0096,0.0080,-0.0268,0.0076,0.0102,0.2212,0
5925026,0.9996,-0.0096,0.0080,-0.0268,-0.0131,0.0221,0.2055,0
5925193,0.9996,-0.0096,0.0080,-0.0268,0.0101,0.0013,0.1988,0
5925526,0.9996,-0.0096,0.0080,-0.0267,0.0397,0.0002,0.1985,0
5925693,0.9996,-0.0096,0.0080,-0.0268,0.0183,0.0224,0.1952,0
5925860,0.9996,-0.0096,0.0080,-0.0268,0.0121,0.0152,0.2048,0
5926026,0.9996,-0.0096,0.0080,-0.0268,-0.0028,0.0202,0.2094,0
5926193,0.9996,-0.0096,0.0080,-0.0268,0.0134,0.0355,0.2222,0
5926360,0.9996,-0.0096,0.0080,-0.0267,0.0295,0.0195,0.2106,0
5926526,0.9996,-0.0096,0.0080,-0.0267,0.0298,-0.0053,0.2147,0
5926693,0.9996,-0.0096,0.0080,-0.0267,0.0159,0.0227,0.2137,0
5926860,0.9996,-0.0096,0.0080,-0.0267,0.0098,0.0196,0.1932,0
5927026,0.9996,-0.0096,0.0080,-0.0267,0.0125,0.0222,0.1952,0
5927193,0.9996,-0.0096,0.0080,-0.0267,0.0235,0.0224,0.2064,0
5927360,0.9996,-0.0096,0.0080,-0.0267,0.0192,0.0255,0.2044,0
5927526,0.9996,-0.0096,0.0080,-0.0267,0.0234,0.0058,0.2142,0
5927693,0.9996,-0.0096,0.0080,-0.0267,0.0382,0.0159,0.1907,0
5927860,0.9996,-0.0096,0.0080,-0.0267,0.0210,0.0270,0.2044,0
5928026,0.9996,-0.0096,0.0080,-0.0267,0.0055,0.0117,0.2226,0
5928193,0.9996,-0.0096,0.0080,-0.0267,0.0100,0.0200,0.1905,0
5928360,0.9996,-0.0096,0.0080,-0.0267,0.0194,0.0095,0.1825,0
5928526,0.9996,-0.0097,0.0080,-0.0268,0.0409,0.0180,0.2187,0
5928693,0.9996,-0.0097,0.0080,-0.0268,0.0340,0.0144,0.2217,0
5928860,0.9996,-0.0096,0.0080,-0.0268,0.0273,0.0141,0.2082,0
5929026,0.9996,-0.0096,0.0080,-0.0268,-0.0022,0.0297,0.1898,0
5929193,0.9996,-0.0097,0.0080,-0.0268,0.0074,0.0284,0.2101,0
5929360,0.9996,-0.0097,0.0080,-0.0268,0.0331,0.0027,0.1857,0
5930026,0.9996,-0.0097,0.0080,-0.0268,0.0084,0.0282,0.1911,0
5930193,0.9996,-0.0097,0.0080,-0.0268,0.0149,0.0202,0.2095,0
5930360,0.9996,-0.0097,0.0080,-0.0268,0.0146,0.0191,0.1890,0
5930526,0.9996,-0.0097,0.0080,-0.0268,0.0402,0.0037,0.2252,0
5930693,0.9996,-0.0097,0.0080,-0.0268,0.0344,0.0189,0.2216,0
5930860,0.9996,-0.0097,0.0080,-0.0268,0.0146,0.0180,0.1939,0
5931026,0.9996,-0.0097,0.0080,-0.0268,-0.0256,0.0223,0.1903,0
5931193,0.9996,-0.0097,0.0080,-0.0268,-0.0004,0.0261,0.2116,0
5931360,0.9996,-0.0097,0.0080,-0.0268,0.0318,-0.0037,0.1874,0
5931526,0.9996,-0.0097,0.0080,-0.0268,0.0481,-0.0036,0.2016,0
5931693,0.9996,-0.0097,0.0080,-0.0268,0.0395,-0.0012,0.1984,0
5931860,0.9996,-0.0097,0.0080,-0.0268,0.0168,0.0156,0.1995,0
5932026,0.9996,-0.0097,0.0079,-0.0268,0.0088,0.0268,0.2226,0
5932193,0.9996,-0.0097,0.0080,-0.0268,0.0028,0.0443,0.2252,0
5932693,0.9996,-0.0097,0.0079,-0.0268,0.0264,-0.0025,0.1893,0
5932860,0.9996,-0.0097,0.0079,-0.0268,0.0138,0.0333,0.1984,0
5933026,0.9996,-0.0097,0.0079,-0.0268,0.0044,0.0428,0.1958,0
5933193,0.9996,-0.0097,0.0079,-0.0268,-0.0040,0.0265,0.2015,0
5933360,0.9996,-0.0097,0.0079,-0.0268,0.0070,-0.0009,0.1932,0
5933526,0.9996,-0.0097,0.0079,-0.0267,0.0502,0.0078,0.1852,0
5934193,0.9996,-0.0097,0.0080,-0.0268,0.0007,0.0453,0.1991,0
5934360,0.9996,-0.0097,0.0080,-0.0268,0.0153,0.0237,0.1927,0
5934526,0.9996,-0.0097,0.0079,-0.0268,0.0457,0.0055,0.1957,0
5934693,0.9996,-0.0097,0.0080,-0.0268,0.0469,-0.0076,0.1961,0
5935360,0.9996,-0.0097,0.0080,-0.0268,0.0411,0.0327,0.2428,0
5935526,0.9996,-0.0097,0.0080,-0.0268,0.0337,-0.0081,0.1688,0
5936193,0.9996,-0.0097,0.0079,-0.0268,-0.0022,0.0327,0.2068,0
5936360,0.9996,-0.0097,0.0080,-0.0268,0.0207,0.0106,0.2222,0
5936526,0.9996,-0.0097,0.0080,-0.0268,0.0373,0.0049,0.1964,0
5936860,0.9996,-0.0096,0.0080,-0.0268,0.0163,0.0138,0.2126,0
5937026,0.9996,-0.0096,0.0080,-0.0268,0.0066,0.0352,0.2130,0
5937527,0.9996,-0.0096,0.0080,-0.0268,0.0351,0.0053,0.2066,0
5937693,0.9996,-0.0096,0.0080,-0.0268,0.0400,0.0155,0.2114,0
5937860,0.9996,-0.0096,0.0080,-0.0268,0.0254,-0.0040,0.2195,0
5938027,0.9996,-0.0096,0.0080,-0.0268,0.0067,0.0089,0.2096,0
5938193,0.9996,-0.0096,0.0080,-0.0268,-0.0066,0.0286,0.2133,0
5938360,0.9996,-0.0096,0.0080,-0.0268,0.0133,0.0213,0.2114,0
5938527,0.9996,-0.0096,0.0080,-0.0268,0.0199,0.0049,0.2037,0
5938693,0.9996,-0.0096,0.0080,-0.0268,0.0406,0.0014,0.1907,0
5938860,0.9996,-0.0096,0.0080,-0.0268,0.0358,0.0035,0.2248,0
5939027,0.9996,-0.0096,0.0080,-0.0268,0.0128,0.0275,0.1877,0
5939527,0.9996,-0.0096,0.0080,-0.0268,0.0237,0.0011,0.2103,0
5939693,0.9996,-0.0097,0.0080,-0.0268,0.0397,-0.0048,0.2006,0
5939860,0.9996,-0.0097,0.0080,-0.0268,0.0345,-0.0010,0.2074,0
5940027,0.9996,-0.0097,0.0080,-0.0268,0.0063,0.0179,0.1873,0
5940193,0.9996,-0.0097,0.0080,-0.0268,-0.0055,0.0304,0.1993,0
5940527,0.9996,-0.0097,0.0080,-0.0268,0.0368,0.0122,0.1939,0
5940693,0.9996,-0.0097,0.0080,-0.0268,0.0452,-0.0029,0.1812,0
5940860,0.9996,-0.0097,0.0080,-0.0268,0.0284,-0.0095,0.1730,0
5941027,0.9996,-0.0097,0.0080,-0.0268,0.0000,0.0127,0.1925,0
5941193,0.9996,-0.0097,0.0080,-0.0268,0.0117,0.0466,0.1796,0
5941360,0.9996,-0.0097,0.0080,-0.0268,0.0169,0.0574,0.2264,0
5941693,0.9996,-0.0096,0.0080,-0.0268,0.0268,-0.0157,0.2129,0
5941860,0.9996,-0.0097,0.0080,-0.0268,0.0200,-0.0076,0.1997,0
5942027,0.9996,-0.0096,0.0080,-0.0268,0.0366,0.0232,0.1831,0
5942193,0.9996,-0.0097,0.0080,-0.0268,0.0267,0.0503,0.2343,0
5942360,0.9996,-0.0096,0.0080,-0.0268,0.0022,0.0297,0.2080,0
5942527,0.9996,-0.0096,0.0080,-0.0268,0.0155,0.0100,0.1972,0
5942693,0.9996,-0.0096,0.0080,-0.0268,0.0296,0.0065,0.1672,0
5942860,0.9996,-0.0096,0.0080,-0.0268,0.0466,0.0151,0.2159,0
5943027,0.9996,-0.0096,0.0080,-0.0268,0.0347,0.0085,0.2255,0
5944027,0.9996,-0.0097,0.0080,-0.0268,0.0475,0.0513,0.2340,0
5944193,0.9996,-0.0096,0.0080,-0.0268,0.0086,0.0218,0.2022,0
5944693,0.9996,-0.0097,0.0080,-0.0268,0.0566,0.0309,0.2541,0
5944860,0.9996,-0.0096,0.0080,-0.0268,0.0693,0.0353,0.1945,0
5945027,0.9996,-0.0096,0.0080,-0.0268,0.0407,0.0301,0.2367,0
5945193,0.9996,-0.0096,0.0080,-0.0269,-0.0217,-0.0009,0.1675,0
5945360,0.9996,-0.0096,0.0080,-0.0269,-0.0325,-0.0191,0.2024,0
5945527,0.9996,-0.0096,0.0080,-0.0269,0.0426,0.0344,0.2042,0
5945693,0.9996,-0.0097,0.0080,-0.0268,0.0769,0.0356,0.2126,0
5945860,0.9996,-0.0097,0.0080,-0.0268,0.0340,-0.0009,0.2110,0
5946027,0.9996,-0.0097,0.0080,-0.0268,-0.0142,-0.0354,0.1778,0
5946193,0.9996,-0.0097,0.0080,-0.0268,0.0034,0.0061,0.2149,0
5946360,0.9996,-0.0097,0.0080,-0.0268,0.0366,0.0856,0.2128,0
5946527,0.9996,-0.0097,0.0080,-0.0268,0.0407,0.0310,0.2182,0
5946693,0.9996,-0.0097,0.0080,-0.0268,0.0117,-0.0357,0.1628,0
5946860,0.9996,-0.0097,0.0080,-0.0269,0.0062,-0.0047,0.1846,0
5947027,0.9996,-0.0097,0.0080,-0.0269,0.0166,0.0387,0.1942,0
5947360,0.9996,-0.0097,0.0080,-0.0269,0.0172,0.0209,0.2064,0
5947527,0.9996,-0.0097,0.0080,-0.0269,0.0087,0.0252,0.1953,0
5947693,0.9996,-0.0097,0.0080,-0.0269,0.0056,-0.0092,0.1695,0
5947860,0.9996,-0.0097,0.0080,-0.0269,0.0501,0.0092,0.2099,0
5948027,0.9996,-0.0097,0.0080,-0.0269,0.0438,0.0358,0.2481,0
5948193,0.9996,-0.0097,0.0080,-0.0269,0.0079,0.0323,0.2024,0
5948360,0.9996,-0.0097,0.0080,-0.0269,-0.0264,-0.0038,0.1728,0
5948527,0.9996,-0.0097,0.0080,-0.0269,0.0262,0.0004,0.2089,0
5948693,0.9996,-0.0097,0.0080,-0.0269,0.0479,0.0383,0.2112,0
5948860,0.9996,-0.0097,0.0080,-0.0269,0.0451,0.0152,0.2020,0
5949027,0.9996,-0.0097,0.0080,-0.0269,0.0144,-0.0002,0.2129,0
5949193,0.9996,-0.0097,0.0080,-0.0269,0.0010,-0.0030,0.2106,0
5949527,0.9996,-0.0097,0.0080,-0.0269,0.0406,0.0390,0.2230,0
5949693,0.9996,-0.0097,0.0080,-0.0269,0.0265,-0.0154,0.2130,0
5949860,0.9996,-0.0097,0.0079,-0.0268,0.0205,-0.0047,0.2219,0
5950027,0.9996,-0.0097,0.0079,-0.0269,0.0125,-0.0102,0.2009,0
5950193,0.9996,-0.0097,0.0079,-0.0269,0.0304,0.0173,0.1841,0
5950360,0.9996,-0.0097,0.0079,-0.0269,0.0300,0.0226,0.1988,0
5950527,0.9996,-0.0097,0.0079,-0.0269,0.0041,0.0169,0.1951,0
5950693,0.9996,-0.0097,0.0079,-0.0269,0.0078,0.0107,0.1924,0
5950860,0.9996,-0.0097,0.0079,-0.0269,0.0433,0.0002,0.1867,0
5951027,0.9996,-0.0097,0.0079,-0.0269,0.0348,0.0153,0.2279,0
5951193,0.9996,-0.0097,0.0079,-0.0269,0.0128,0.0382,0.1893,0
5951360,0.9996,-0.0097,0.0079,-0.0269,0.0089,0.0140,0.2048,0
5951527,0.9996,-0.0097,0.0079,-0.0269,-0.0058,0.0116,0.2287,0
5951693,0.9996,-0.0097,0.0079,-0.0269,0.0142,0.0034,0.2070,0
5951860,0.9996,-0.0097,0.0079,-0.0268,0.0413,0.0209,0.1786,0
5952027,0.9996,-0.0097,0.0079,-0.0268,0.0439,0.0115,0.1989,0
5952193,0.9996,-0.0097,0.0079,-0.0269,-0.0011,0.0197,0.1922,0
5952360,0.9996,-0.0097,0.0079,-0.0269,-0.0059,0.0128,0.1813,0
5952527,0.9996,-0.0097,0.0079,-0.0268,0.0180,0.0309,0.2003,0
5952693,0.9996,-0.0097,0.0079,-0.0268,0.0433,0.0120,0.2140,0
5952860,0.9996,-0.0097,0.0079,-0.0269,0.0279,0.0072,0.2156,0
5953027,0.9996,-0.0097,0.0079,-0.0269,0.0107,0.0069,0.1867,0
5953193,0.9996,-0.0097,0.0079,-0.0269,0.0036,0.0345,0.2299,0
5953360,0.9996,-0.0097,0.0079,-0.0269,0.0160,0.0231,0.2108,0
5953693,0.9996,-0.0097,0.0079,-0.0269,0.0252,0.0088,0.1887,0
5953860,0.9996,-0.0097,0.0079,-0.0269,0.0155,0.0017,0.2052,0
5954027,0.9996,-0.0097,0.0079,-0.0269,0.0255,0.0033,0.1992,0
5954194,0.9996,-0.0097,0.0079,-0.0269,0.0238,0.0213,0.1958,0
5954360,0.9996,-0.0097,0.0079,-0.0269,0.0153,0.0232,0.1933,0
5954527,0.9996,-0.0097,0.0079,-0.0269,0.0135,0.0100,0.1989,0
5954694,0.9996,-0.0097,0.0079,-0.0269,0.0137,-0.0032,0.1949,0
5954860,0.9996,-0.0097,0.0079,-0.0269,0.0231,0.0156,0.1997,0
5955194,0.9996,-0.0097,0.0079,-0.0269,0.0326,0.0224,0.1863,0
5955360,0.9996,-0.0097,0.0079,-0.0269,0.0156,0.0289,0.1925,0
5956027,0.9996,-0.0097,0.0079,-0.0269,0.0294,0.0247,0.1941,0
5956194,0.9996,-0.0097,0.0079,-0.0269,0.0230,0.0115,0.2075,0
5956360,0.9996,-0.0097,0.0079,-0.0269,0.0065,0.0046,0.1959,0
5956694,0.9996,-0.0097,0.0079,-0.0269,0.0216,0.0103,0.2295,0
5956860,0.9996,-0.0097,0.0080,-0.0269,0.0282,0.0058,0.2084,0
5957027,0.9996,-0.0097,0.0080,-0.0269,0.0227,0.0113,0.1793,0
5957194,0.9996,-0.0097,0.0080,-0.0269,0.0141,0.0173,0.2130,0
5957360,0.9996,-0.0097,0.0080,-0.0269,0.0161,0.0107,0.1918,0
5957527,0.9996,-0.0097,0.0080,-0.0269,0.0215,0.0103,0.2212,0
5958194,0.9996,-0.0097,0.0080,-0.0268,0.0243,0.0282,0.2123,0
5958360,0.9996,-0.0097,0.0080,-0.0268,0.0280,0.0260,0.2154,0
5958527,0.9996,-0.0097,0.0080,-0.0268,0.0114,0.0127,0.1991,0
5958694,0.9996,-0.0097,0.0080,-0.0268,0.0282,0.0235,0.1851,0
5958860,0.9996,-0.0097,0.0080,-0.0268,0.0212,0.0231,0.2199,0
5959027,0.9996,-0.0097,0.0080,-0.0268,0.0237,0.0161,0.2021,0
5959360,0.9996,-0.0097,0.0080,-0.0269,0.0214,0.0093,0.2174,0
5959527,0.9996,-0.0096,0.0080,-0.0268,0.0195,0.0179,0.2129,0
5959694,0.9996,-0.0096,0.0080,-0.0268,0.0264,0.0107,0.1824,0
5960194,0.9996,-0.0097,0.0080,-0.0268,0.0172,0.0106,0.2073,0
5960360,0.9996,-0.0096,0.0080,-0.0268,0.0228,0.0176,0.1944,0
5960527,0.9996,-0.0097,0.0080,-0.0268,0.0246,0.0087,0.1969,0
5960860,0.9996,-0.0096,0.0080,-0.0268,0.0237,0.0241,0.2038,0
5961027,0.9996,-0.0096,0.0080,-0.0268,0.0352,0.0082,0.2048,0
5961194,0.9996,-0.0096,0.0080,-0.0268,0.0366,0.0086,0.1921,0
5961527,0.9996,-0.0096,0.0080,-0.0268,0.0230,0.0260,0.2186,0
5961694,0.9996,-0.0096,0.0080,-0.0268,0.0111,0.0195,0.2100,0
5961860,0.9996,-0.0096,0.0080,-0.0268,0.0150,0.0121,0.1941,0
5962360,0.9996,-0.0096,0.0080,-0.0268,0.0194,0.0126,0.1908,0
5962527,0.9996,-0.0096,0.0080,-0.0268,0.0087,0.0095,0.2010,0
5962694,0.9996,-0.0096,0.0080,-0.0268,0.0368,0.0118,0.1952,0
5963027,0.9996,-0.0096,0.0080,-0.0268,0.0173,0.0140,0.2054,0
5963194,0.9996,-0.0096,0.0080,-0.0268,0.0116,0.0219,0.2004,0
5963360,0.9996,-0.0096,0.0080,-0.0268,0.0159,0.0145,0.2219,0
5963527,0.9996,-0.0096,0.0080,-0.0268,0.0110,0.0164,0.1952,0
5963694,0.9996,-0.0096,0.0080,-0.0268,0.0175,0.0166,0.1964,0
5963860,0.9996,-0.0096,0.0080,-0.0268,0.0158,0.0096,0.1858,0
5964027,0.9996,-0.0096,0.0080,-0.0268,0.0299,0.0237,0.1977,0
5964194,0.9996,-0.0096,0.0080,-0.0268,0.0187,0.0126,0.1982,0
5964360,0.9996,-0.0096,0.0080,-0.0268,0.0189,0.0102,0.1973,0
5964527,0.9996,-0.0097,0.0079,-0.0268,0.0425,0.0242,0.2059,0
5964694,0.9996,-0.0096,0.0079,-0.0268,0.0181,-0.0051,0.2169,0
5964860,0.9996,-0.0096,0.0079,-0.0268,0.0125,-0.0027,0.2098,0
5965027,0.9996,-0.0096,0.0079,-0.0268,0.0227,0.0042,0.2167,0
5965194,0.9996,-0.0096,0.0079,-0.0268,0.0238,0.0146,0.1875,0
5965360,0.9996,-0.0096,0.0079,-0.0269,0.0286,0.0219,0.2018,0
5965694,0.9996,-0.0096,0.0079,-0.0268,0.0254,0.0163,0.2035,0
5965860,0.9996,-0.0096,0.0079,-0.0269,0.0377,0.0166,0.2115,0
5966027,0.9996,-0.0096,0.0079,-0.0269,0.0315,0.0200,0.1993,0
5966194,0.9996,-0.0096,0.0079,-0.0269,0.0271,0.0074,0.1960,0
5966360,0.9996,-0.0096,0.0079,-0.0269,-0.0095,0.0259,0.1941,0
5966527,0.9996,-0.0096,0.0079,-0.0269,0.0157,0.0422,0.2257,0
5966694,0.9996,-0.0096,0.0079,-0.0269,0.0250,0.0225,0.1925,0
5966860,0.9996,-0.0096,0.0079,-0.0269,0.0370,0.0109,0.1859,0
5967027,0.9996,-0.0096,0.0079,-0.0269,0.0164,0.0049,0.2007,0
5967194,0.9996,-0.0096,0.0079,-0.0269,0.0107,0.0018,0.1991,0
5967360,0.9996,-0.0096,0.0079,-0.0269,0.0338,0.0096,0.2015,0
5967527,0.9996,-0.0096,0.0079,-0.0269,0.0219,0.0083,0.1995,0
5967694,0.9996,-0.0096,0.0079,-0.0269,0.0073,0.0068,0.1893,0
5967860,0.9996,-0.0096,0.0079,-0.0269,0.0093,0.0158,0.2012,0
5968027,0.9996,-0.0096,0.0079,-0.0269,0.0212,0.0170,0.1897,0
5968194,0.9996,-0.0096,0.0079,-0.0269,0.0349,0.0272,0.1839,0
5968360,0.9996,-0.0096,0.0079,-0.0269,0.0257,0.0279,0.2124,0
5968527,0.9996,-0.0096,0.0079,-0.0269,0.0299,0.0090,0.1972,0
5968694,0.9996,-0.0096,0.0079,-0.0269,0.0169,0.0070,0.2208,0
5968860,0.9996,-0.0096,0.0079,-0.0269,0.0263,0.0165,0.2160,0
5969027,0.9996,-0.0096,0.0079,-0.0269,0.0243,0.0246,0.2068,0
5969194,0.9996,-0.0096,0.0079,-0.0269,0.0292,0.0033,0.2076,0
5969360,0.9996,-0.0096,0.0080,-0.0269,0.0300,0.0034,0.1922,0
5969527,0.9996,-0.0096,0.0080,-0.0269,0.0174,0.0026,0.2048,0
5969860,0.9996,-0.0096,0.0080,-0.0269,0.0183,0.0129,0.2090,0
5970027,0.9996,-0.0096,0.0080,-0.0269,0.0184,0.0073,0.1911,0
5970194,0.9996,-0.0096,0.0080,-0.0269,0.0196,0.0153,0.2036,0
5970694,0.9996,-0.0096,0.0080,-0.0269,0.0229,0.0204,0.1954,0
5970861,0.9996,-0.0096,0.0080,-0.0269,0.0221,0.0120,0.2044,0
5971027,0.9996,-0.0096,0.0080,-0.0269,0.0144,-0.0007,0.1880,0
5971361,0.9996,-0.0096,0.0080,-0.0269,0.0255,0.0099,0.2076,0
5972861,0.9996,-0.0096,0.0080,-0.0269,0.0153,0.0214,0.2046,0
5973027,0.9996,-0.0096,0.0080,-0.0269,0.0291,0.0258,0.2198,0
5973527,0.9996,-0.0096,0.0080,-0.0269,0.0351,-0.0031,0.2054,0
5973694,0.9996,-0.0096,0.0080,-0.0269,0.0262,0.0125,0.2052,0
5973861,0.9996,-0.0096,0.0080,-0.0269,0.0198,0.0271,0.1851,0
5974027,0.9996,-0.0096,0.0080,-0.0269,0.0217,0.0098,0.2111,0
5974194,0.9996,-0.0096,0.0080,-0.0269,0.0315,0.0151,0.1976,0
5974361,0.9996,-0.0096,0.0080,-0.0269,0.0218,0.0107,0.1922,0
5975027,0.9996,-0.0096,0.0080,-0.0269,0.0129,0.0075,0.2205,0
5975194,0.9996,-0.0096,0.0080,-0.0269,0.0149,0.0131,0.2096,0
5975527,0.9996,-0.0096,0.0080,-0.0269,0.0180,0.0135,0.2121,0
5975694,0.9996,-0.0096,0.0080,-0.0269,0.0318,0.0110,0.2145,0
5975861,0.9996,-0.0096,0.0080,-0.0269,0.0187,0.0188,0.2071,0
5976027,0.9996,-0.0096,0.0080,-0.0269,0.0350,0.0201,0.2126,0
5976194,0.9996,-0.0096,0.0080,-0.0269,0.0148,0.0050,0.2027,0
5976361,0.9996,-0.0096,0.0080,-0.0269,0.0221,0.0149,0.1806,0
5976527,0.9996,-0.0096,0.0080,-0.0269,0.0216,0.0174,0.1879,0
5976694,0.9996,-0.0096,0.0080,-0.0269,0.0215,0.0041,0.2052,0
5976861,0.9996,-0.0097,0.0079,-0.0269,0.0240,0.0175,0.1853,0
5977027,0.9996,-0.0097,0.0079,-0.0269,0.0042,0.0202,0.1933,0
5977194,0.9996,-0.0097,0.0080,-0.0269,0.0221,0.0103,0.2098,0
5977361,0.9996,-0.0097,0.0079,-0.0269,0.0159,0.0241,0.2022,0
5977527,0.9996,-0.0097,0.0080,-0.0269,0.0226,0.0191,0.1956,0
5977694,0.9996,-0.0097,0.0079,-0.0269,0.0206,0.0187,0.2141,0
5977861,0.9996,-0.0097,0.0079,-0.0269,0.0148,0.0182,0.2149,0
5978027,0.9996,-0.0097,0.0079,-0.0269,0.0186,0.0142,0.1998,0
5978194,0.9996,-0.0097,0.0079,-0.0269,0.0383,0.0175,0.2036,0
5978361,0.9996,-0.0097,0.0079,-0.0269,0.0367,0.0220,0.1961,0
5978527,0.9996,-0.0097,0.0080,-0.0269,0.0027,0.0195,0.1768,0
5978694,0.9996,-0.0097,0.0080,-0.0269,0.0291,0.0220,0.2015,0
5978861,0.9996,-0.0097,0.0080,-0.0269,0.0165,0.0288,0.2200,0
5979194,0.9996,-0.0097,0.0079,-0.0269,0.0247,0.0181,0.1963,0
5979361,0.9996,-0.0097,0.0079,-0.0269,0.0335,0.0076,0.1986,0
5979527,0.9996,-0.0097,0.0079,-0.0269,0.0188,0.0179,0.2123,0
5979694,0.9996,-0.0097,0.0079,-0.0269,0.0231,0.0164,0.2106,0
5979861,0.9996,-0.0097,0.0079,-0.0269,0.0202,0.0276,0.2293,0
5980027,0.9996,-0.0097,0.0079,-0.0269,0.0118,0.0074,0.1939,0
5980194,0.9996,-0.0097,0.0079,-0.0269,0.0299,0.0012,0.1940,0
5980361,0.9996,-0.0097,0.0079,-0.0269,0.0261,0.0161,0.1895,0
5980527,0.9996,-0.0097,0.0079,-0.0269,0.0242,0.0133,0.2232,0
5980694,0.9996,-0.0097,0.0079,-0.0269,0.0071,0.0158,0.1985,0
5980861,0.9996,-0.0097,0.0079,-0.0269,0.0225,0.0154,0.1887,0
5981027,0.9996,-0.0097,0.0079,-0.0269,0.0291,0.0228,0.2014,0
5981194,0.9996,-0.0097,0.0079,-0.0269,0.0273,0.0166,0.2158,0
5981361,0.9996,-0.0097,0.0079,-0.0269,0.0257,0.0191,0.2089,0
5981527,0.9996,-0.0097,0.0079,-0.0269,0.0152,0.0097,0.2243,0
5981861,0.9996,-0.0097,0.0079,-0.0269,0.0209,0.0165,0.1980,0
5982027,0.9996,-0.0097,0.0079,-0.0269,0.0266,0.0204,0.1890,0
5982194,0.9996,-0.0097,0.0079,-0.0269,0.0325,0.0212,0.2033,0
5982361,0.9996,-0.0097,0.0079,-0.0269,0.0101,0.0072,0.2182,0
5982527,0.9996,-0.0097,0.0079,-0.0269,0.0083,0.0028,0.1881,0
5982694,0.9996,-0.0097,0.0079,-0.0269,0.0246,0.0134,0.1987,0
5982861,0.9996,-0.0097,0.0079,-0.0269,0.0191,0.0166,0.2061,0
5983027,0.9996,-0.0097,0.0079,-0.0269,0.0092,0.0152,0.2022,0
5983194,0.9996,-0.0097,0.0079,-0.0269,0.0217,0.0113,0.1892,0
5983361,0.9996,-0.0097,0.0079,-0.0269,0.0191,0.0154,0.1835,0
5983527,0.9996,-0.0097,0.0079,-0.0269,0.0261,0.0235,0.2061,0
5983694,0.9996,-0.0097,0.0079,-0.0269,0.0181,0.0104,0.2099,0
5984194,0.9996,-0.0097,0.0079,-0.0269,0.0245,0.0290,0.1838,0
5984361,0.9996,-0.0097,0.0079,-0.0269,0.0200,0.0252,0.2140,0
5984527,0.9996,-0.0097,0.0079,-0.0269,0.0205,0.0108,0.2035,0
5984861,0.9996,-0.0097,0.0079,-0.0269,0.0164,0.0312,0.1904,0
5985027,0.9996,-0.0097,0.0079,-0.0269,0.0229,0.0239,0.2221,0
5985194,0.9996,-0.0097,0.0079,-0.0269,0.0106,0.0182,0.2014,0
5985361,0.9996,-0.0097,0.0079,-0.0269,0.0018,0.0045,0.1988,0
5985527,0.9996,-0.0097,0.0079,-0.0269,0.0081,0.0193,0.2230,0
5985694,0.9996,-0.0097,0.0079,-0.0269,0.0089,0.0198,0.1779,0
5986361,0.9996,-0.0097,0.0078,-0.0269,0.0032,0.0184,0.1954,0
5986527,0.9996,-0.0097,0.0078,-0.0269,0.0313,0.0192,0.2199,0
5986694,0.9996,-0.0097,0.0078,-0.0269,0.0265,0.0121,0.1966,0
5987027,0.9996,-0.0097,0.0078,-0.0269,0.0160,0.0239,0.2098,0
5987194,0.9996,-0.0097,0.0078,-0.0269,0.0163,0.0224,0.2088,0
5987361,0.9996,-0.0097,0.0078,-0.0269,0.0272,0.0131,0.2052,0
5987528,0.9996,-0.0097,0.0078,-0.0269,0.0253,0.0311,0.2092,0
5987694,0.9996,-0.0097,0.0078,-0.0269,0.0150,0.0012,0.1956,0
5987861,0.9996,-0.0097,0.0078,-0.0269,0.0099,0.0017,0.1918,0
5988028,0.9996,-0.0097,0.0078,-0.0269,0.0224,0.0101,0.2169,0
5988194,0.9996,-0.0097,0.0078,-0.0269,0.0213,0.0197,0.2118,0
5988361,0.9996,-0.0097,0.0078,-0.0269,0.0218,0.0213,0.2020,0
5988528,0.9996,-0.0097,0.0078,-0.0269,0.0097,0.0186,0.1913,0
5988694,0.9996,-0.0097,0.0078,-0.0269,0.0062,0.0027,0.2029,0
5988861,0.9996,-0.0097,0.0078,-0.0269,0.0272,0.0103,0.2114,0
5989028,0.9996,-0.0097,0.0078,-0.0269,0.0124,0.0062,0.1988,0
5989194,0.9996,-0.0097,0.0078,-0.0269,0.0201,0.0331,0.2000,0
5989361,0.9996,-0.0097,0.0078,-0.0269,0.0073,0.0258,0.2114,0
5989694,0.9996,-0.0097,0.0078,-0.0269,0.0238,0.0107,0.2127,0
5989861,0.9996,-0.0097,0.0078,-0.0269,0.0328,0.0076,0.2324,0
5990028,0.9996,-0.0097,0.0078,-0.0269,0.0157,0.0064,0.2127,0
5990528,0.9996,-0.0097,0.0078,-0.0269,0.0092,0.0259,0.2166,0
5990694,0.9996,-0.0097,0.0078,-0.0269,0.0040,0.0176,0.1983,0
5990861,0.9996,-0.0097,0.0078,-0.0269,0.0263,0.0104,0.1874,0
5991194,0.9996,-0.0097,0.0078,-0.0269,0.0269,0.0236,0.1975,0
5991361,0.9996,-0.0097,0.0078,-0.0269,0.0117,0.0023,0.1960,0
5991528,0.9996,-0.0097,0.0078,-0.0269,0.0161,0.0250,0.2146,0
5991694,0.9996,-0.0097,0.0078,-0.0269,0.0057,0.0110,0.2099,0
5991861,0.9996,-0.0097,0.0078,-0.0269,0.0178,0.0046,0.1903,0
5992028,0.9996,-0.0097,0.0078,-0.0269,0.0335,0.0180,0.2206,0
5992694,0.9996,-0.0097,0.0078,-0.0269,0.0205,0.0093,0.1993,0
5992861,0.9996,-0.0097,0.0078,-0.0269,0.0174,0.0229,0.1916,0
5993028,0.9996,-0.0097,0.0078,-0.0269,0.0401,0.0236,0.2018,0
5993194,0.9996,-0.0097,0.0078,-0.0270,0.0182,0.0230,0.1940,0
5993361,0.9996,-0.0097,0.0078,-0.0269,-0.0052,0.0276,0.1976,0
5993528,0.9996,-0.0097,0.0078,-0.0269,0.0120,0.0136,0.2073,0
5993861,0.9996,-0.0097,0.0078,-0.0270,0.0261,0.0024,0.2051,0
5994028,0.9996,-0.0097,0.0079,-0.0270,0.0166,0.0172,0.1917,0
5994194,0.9996,-0.0097,0.0079,-0.0270,0.0264,0.0077,0.1962,0
5994361,0.9996,-0.0097,0.0079,-0.0270,0.0262,0.0255,0.2089,0
5994528,0.9996,-0.0097,0.0079,-0.0270,0.0214,0.0209,0.2086,0
5994694,0.9996,-0.0097,0.0079,-0.0270,0.0221,0.0226,0.2077,0
5994861,0.9996,-0.0097,0.0079,-0.0270,0.0122,0.0071,0.1931,0
5995028,0.9996,-0.0097,0.0079,-0.0270,0.0353,0.0285,0.2121,0
5995361,0.9996,-0.0097,0.0079,-0.0270,0.0126,0.0253,0.1934,0
5995528,0.9996,-0.0097,0.0079,-0.0270,0.0252,0.0205,0.2138,0
5995694,0.9996,-0.0097,0.0079,-0.0270,0.0319,0.0210,0.2120,0
5996028,0.9996,-0.0097,0.0079,-0.0270,0.0273,0.0169,0.2252,0
5996194,0.9996,-0.0097,0.0079,-0.0270,0.0098,0.0201,0.2047,0
5996361,0.9996,-0.0097,0.0079,-0.0270,0.0186,0.0173,0.1948,0
5996861,0.9996,-0.0097,0.0079,-0.0269,0.0131,0.0066,0.1976,0
5997028,0.9996,-0.0097,0.0079,-0.0269,0.0287,0.0184,0.2008,0
5997194,0.9996,-0.0097,0.0079,-0.0269,0.0223,0.0189,0.2015,0
5997361,0.9996,-0.0097,0.0079,-0.0269,0.0127,0.0168,0.1963,0
5997528,0.9996,-0.0097,0.0079,-0.0269,0.0158,0.0196,0.2052,0
5997694,0.9996,-0.0097,0.0079,-0.0269,0.0179,0.0016,0.2200,0
5998028,0.9996,-0.0097,0.0079,-0.0269,0.0167,0.0140,0.1972,0
5998194,0.9996,-0.0097,0.0079,-0.0269,0.0251,0.0128,0.2257,0
5998361,0.9996,-0.0097,0.0079,-0.0269,0.0222,0.0270,0.1953,0
5998528,0.9996,-0.0097,0.0079,-0.0269,0.0267,0.0221,0.1870,0
5998694,0.9996,-0.0097,0.0079,-0.0269,0.0128,0.0240,0.2104,0
5998861,0.9996,-0.0097,0.0079,-0.0269,0.0269,0.0171,0.1971,0
5999028,0.9996,-0.0097,0.0079,-0.0269,0.0151,0.0193,0.1873,0
5999194,0.9996,-0.0097,0.0079,-0.0269,0.0199,0.0098,0.1992,0
5999361,0.9996,-0.0097,0.0079,-0.0269,0.0194,0.0162,0.2113,0
5999528,0.9996,-0.0097,0.0079,-0.0269,0.0238,0.0170,0.2066,0
5999694,0.9996,-0.0097,0.0079,-0.0269,0.0234,0.0138,0.2045,0
5999861,0.9996,-0.0097,0.0079,-0.0269,0.0230,0.0201,0.2117,0
6000528,0.9996,-0.0097,0.0079,-0.0269,0.0213,0.0151,0.1871,0
6000694,0.9996,-0.0097,0.0079,-0.0269,0.0104,0.0244,0.1926,0
6000861,0.9996,-0.0097,0.0079,-0.0269,0.0130,0.0198,0.1884,0
6001028,0.9996,-0.0097,0.0079,-0.0269,0.0217,0.0138,0.2174,0
6001194,0.9996,-0.0097,0.0079,-0.0269,0.0250,0.0166,0.1961,0
6001361,0.9996,-0.0097,0.0079,-0.0269,0.0106,0.0208,0.1872,0
6001694,0.9996,-0.0097,0.0079,-0.0269,0.0172,0.0222,0.2054,0
6001861,0.9996,-0.0097,0.0079,-0.0269,0.0221,0.0245,0.2021,0
6002028,0.9996,-0.0097,0.0079,-0.0269,0.0306,0.0153,0.1826,0
6002194,0.9996,-0.0097,0.0079,-0.0269,0.0217,0.0194,0.2118,0
6002361,0.9996,-0.0097,0.0079,-0.0269,-0.0012,0.0252,0.2247,0
6002528,0.9996,-0.0097,0.0079,-0.0269,0.0071,0.0169,0.1896,0
6002694,0.9996,-0.0097,0.0079,-0.0269,0.0217,0.0287,0.2205,0
6002861,0.9996,-0.0097,0.0079,-0.0269,0.0299,0.0201,0.2027,0
6003028,0.9996,-0.0097,0.0079,-0.0269,0.0198,0.0154,0.1958,0
6003694,0.9996,-0.0097,0.0079,-0.0269,0.0202,0.0179,0.2085,0
6003861,0.9996,-0.0097,0.0079,-0.0269,0.0196,0.0190,0.2066,0
6004028,0.9996,-0.0097,0.0079,-0.0269,0.0298,0.0270,0.1931,0
6004195,0.9996,-0.0097,0.0079,-0.0269,0.0136,0.0391,0.1849,0
6004361,0.9996,-0.0097,0.0079,-0.0269,0.0132,0.0275,0.2119,0
6004695,0.9996,-0.0097,0.0079,-0.0269,0.0137,0.0190,0.1842,0
6004861,0.9996,-0.0097,0.0079,-0.0269,0.0337,0.0094,0.2143,0
6005195,0.9996,-0.0097,0.0079,-0.0270,0.0088,0.0093,0.2062,0
6005361,0.9996,-0.0097,0.0079,-0.0270,0.0062,0.0129,0.2075,0
6005528,0.9996,-0.0098,0.0079,-0.0270,0.0186,0.0109,0.2167,0
6005861,0.9996,-0.0097,0.0079,-0.0270,0.0265,0.0075,0.2012,0
6006028,0.9996,-0.0097,0.0079,-0.0270,0.0185,0.0185,0.2124,0
6006195,0.9996,-0.0097,0.0079,-0.0270,0.0138,0.0273,0.1895,0
6006361,0.9996,-0.0097,0.0079,-0.0270,0.0235,0.0173,0.2155,0
6006528,0.9996,-0.0098,0.0079,-0.0270,0.0235,0.0119,0.1994,0
6006695,0.9996,-0.0098,0.0079,-0.0270,0.0240,0.0120,0.1786,0
6006861,0.9996,-0.0098,0.0079,-0.0270,0.0398,0.0193,0.1969,0
6007028,0.9996,-0.0098,0.0079,-0.0270,0.0170,0.0146,0.2092,0
6007195,0.9996,-0.0098,0.0079,-0.0270,0.0214,0.0178,0.2093,0
6007361,0.9996,-0.0098,0.0079,-0.0270,0.0169,0.0232,0.2245,0
6007528,0.9996,-0.0097,0.0079,-0.0270,0.0185,0.0158,0.1962,0
6007695,0.9996,-0.0097,0.0079,-0.0270,0.0151,0.0130,0.1998,0
6008028,0.9996,-0.0098,0.0079,-0.0270,0.0166,0.0305,0.2043,0
6008195,0.9996,-0.0098,0.0079,-0.0270,0.0138,0.0288,0.2026,0
6008361,0.9996,-0.0098,0.0079,-0.0270,0.0156,0.0213,0.2240,0
6008528,0.9996,-0.0098,0.0079,-0.0270,0.0074,0.0224,0.2079,0
6008695,0.9996,-0.0098,0.0079,-0.0270,0.0137,0.0256,0.2047,0
6008861,0.9996,-0.0098,0.0079,-0.0270,0.0133,0.0185,0.2211,0
6009028,0.9996,-0.0098,0.0079,-0.0270,0.0101,0.0227,0.2256,0
6009195,0.9996,-0.0098,0.0079,-0.0270,0.0157,0.0138,0.1889,0
6009361,0.9996,-0.0098,0.0079,-0.0270,0.0111,0.0272,0.2094,0
6009528,0.9996,-0.0098,0.0079,-0.0270,0.0210,0.0258,0.2021,0
6009695,0.9996,-0.0098,0.0079,-0.0270,0.0187,0.0168,0.2196,0
6009861,0.9996,-0.0098,0.0079,-0.0270,0.0275,0.0085,0.2097,0
6010028,0.9996,-0.0098,0.0079,-0.0270,0.0197,0.0107,0.1898,0
6010195,0.9996,-0.0098,0.0079,-0.0270,0.0204,0.0224,0.1975,0
6010361,0.9996,-0.0098,0.0079,-0.0270,0.0172,0.0330,0.1986,0
6010528,0.9996,-0.0098,0.0079,-0.0270,0.0132,0.0326,0.1986,0
6010695,0.9996,-0.0098,0.0079,-0.0270,0.0196,0.0165,0.1969,0
6010861,0.9996,-0.0098,0.0079,-0.0270,0.0146,0.0062,0.1884,0
6011028,0.9996,-0.0098,0.0079,-0.0270,0.0227,0.0228,0.2187,0
6011195,0.9996,-0.0098,0.0079,-0.0270,0.0246,0.0256,0.2002,0
6011361,0.9996,-0.0098,0.0079,-0.0270,0.0165,0.0213,0.2059,0
6011528,0.9996,-0.0098,0.0079,-0.0270,0.0204,0.0190,0.2024,0
6011695,0.9996,-0.0098,0.0079,-0.0270,0.0088,0.0235,0.1984,0
6011861,0.9996,-0.0098,0.0079,-0.0270,0.0113,0.0151,0.2057,0
6012361,0.9996,-0.0098,0.0079,-0.0270,0.0145,0.0238,0.2112,0
6012528,0.9996,-0.0098,0.0079,-0.0270,0.0203,0.0205,0.2301,0
6012695,0.9996,-0.0098,0.0079,-0.0270,0.0191,0.0236,0.1752,0
6013028,0.9996,-0.0098,0.0079,-0.0270,0.0157,0.0112,0.2060,0
6013195,0.9996,-0.0098,0.0079,-0.0270,-0.0040,0.0197,0.1942,0
6013361,0.9996,-0.0098,0.0079,-0.0270,0.0120,0.0273,0.2012,0
6013695,0.9996,-0.0098,0.0079,-0.0270,0.0155,0.0266,0.2078,0
6013861,0.9996,-0.0098,0.0079,-0.0270,0.0354,0.0247,0.1870,0
6014028,0.9996,-0.0098,0.0079,-0.0270,0.0052,0.0243,0.2134,0
6014528,0.9996,-0.0098,0.0079,-0.0270,0.0231,0.0313,0.2189,0
6015195,0.9996,-0.0098,0.0079,-0.0270,0.0105,0.0144,0.2154,0
6015361,0.9996,-0.0098,0.0079,-0.0270,0.0181,0.0200,0.1948,0
6015695,0.9996,-0.0098,0.0079,-0.0270,0.0132,0.0229,0.2234,0
6015861,0.9996,-0.0098,0.0079,-0.0270,0.0076,0.0286,0.2035,0
6016028,0.9996,-0.0098,0.0079,-0.0270,0.0211,0.0247,0.1896,0
6016695,0.9996,-0.0098,0.0079,-0.0270,0.0096,0.0162,0.1967,0
6016861,0.9996,-0.0098,0.0078,-0.0270,0.0290,0.0216,0.2134,0
6017028,0.9996,-0.0098,0.0078,-0.0270,0.0159,0.0021,0.2247,0
6017195,0.9996,-0.0098,0.0078,-0.0270,0.0356,0.0230,0.1849,0
6017361,0.9996,-0.0098,0.0078,-0.0270,0.0173,0.0229,0.2229,0
6017528,0.9996,-0.0098,0.0078,-0.0270,0.0208,0.0280,0.2223,0
6017861,0.9996,-0.0098,0.0078,-0.0270,0.0089,0.0128,0.1818,0
6018028,0.9996,-0.0098,0.0078,-0.0270,0.0235,0.0287,0.2001,0
6018195,0.9996,-0.0098,0.0078,-0.0270,0.0281,0.0211,0.1915,0
6018695,0.9996,-0.0098,0.0078,-0.0270,0.0086,0.0111,0.2100,0
6019361,0.9996,-0.0098,0.0078,-0.0270,0.0247,0.0131,0.2078,0
6020028,0.9996,-0.0097,0.0078,-0.0270,0.0280,0.0409,0.2042,0
6020195,0.9996,-0.0097,0.0078,-0.0270,0.0202,0.0323,0.2005,0
6020361,0.9996,-0.0097,0.0078,-0.0270,0.0156,0.0063,0.1951,0
6020528,0.9996,-0.0097,0.0078,-0.0270,0.0086,0.0335,0.2080,0
6020695,0.9996,-0.0097,0.0078,-0.0270,0.0280,0.0222,0.1793,0
6020862,0.9996,-0.0097,0.0079,-0.0270,0.0208,0.0148,0.2061,0
6021028,0.9996,-0.0097,0.0078,-0.0270,0.0067,0.0187,0.2097,0
6021195,0.9996,-0.0097,0.0078,-0.0270,0.0161,0.0199,0.2130,0
6021362,0.9996,-0.0097,0.0078,-0.0270,0.0139,0.0349,0.2159,0
6021528,0.9996,-0.0097,0.0079,-0.0270,0.0140,0.0071,0.2134,0
6021695,0.9996,-0.0097,0.0079,-0.0270,0.0349,0.0073,0.1974,0
6021862,0.9996,-0.0097,0.0079,-0.0270,0.0210,0.0182,0.2023,0
6022028,0.9996,-0.0097,0.0079,-0.0270,0.0184,0.0080,0.1900,0
6022195,0.9996,-0.0097,0.0079,-0.0270,0.0269,0.0185,0.2003,0
6022362,0.9996,-0.0097,0.0079,-0.0270,0.0200,0.0282,0.2075,0
6022528,0.9996,-0.0097,0.0079,-0.0270,0.0167,0.0004,0.2110,0
6022695,0.9996,-0.0097,0.0079,-0.0270,-0.0018,0.0075,0.2109,0
6022862,0.9996,-0.0097,0.0079,-0.0270,0.0286,0.0185,0.2154,0
6023028,0.9996,-0.0097,0.0079,-0.0270,0.0322,0.0226,0.2228,0
6023195,0.9996,-0.0097,0.0079,-0.0270,0.0168,0.0287,0.2075,0
6023362,0.9996,-0.0097,0.0079,-0.0270,0.0178,0.0236,0.2099,0
6023528,0.9996,-0.0097,0.0079,-0.0270,0.0092,0.0003,0.1947,0
6023695,0.9996,-0.0097,0.0079,-0.0270,0.0195,0.0123,0.1734,0
6024195,0.9996,-0.0097,0.0079,-0.0271,0.0099,0.0221,0.1860,0
6024362,0.9996,-0.0097,0.0079,-0.0271,0.0073,0.0147,0.1973,0
6024528,0.9996,-0.0097,0.0079,-0.0271,0.0149,0.0215,0.2180,0
6024695,0.9996,-0.0097,0.0079,-0.0271,0.0301,0.0235,0.1949,0
6024862,0.9996,-0.0097,0.0079,-0.0271,0.0281,0.0079,0.2048,0
6025028,0.9996,-0.0097,0.0079,-0.0271,0.0023,0.0213,0.2178,0
6025195,0.9996,-0.0097,0.0079,-0.0271,0.0186,0.0168,0.2132,0
6025362,0.9996,-0.0097,0.0079,-0.0271,0.0113,0.0234,0.2043,0
6025528,0.9996,-0.0097,0.0079,-0.0271,0.0228,0.0119,0.1768,0
6025695,0.9996,-0.0097,0.0079,-0.0271,0.0348,0.0354,0.2026,0
6025862,0.9996,-0.0097,0.0079,-0.0271,0.0349,0.0338,0.2159,0
6026028,0.9996,-0.0097,0.0079,-0.0271,0.0170,0.0096,0.2110,0
6026195,0.9996,-0.0097,0.0079,-0.0270,0.0066,0.0230,0.1922,0
6026362,0.9996,-0.0097,0.0079,-0.0271,0.0071,0.0326,0.2259,0
6026528,0.9996,-0.0097,0.0079,-0.0271,0.0212,0.0253,0.1901,0
6026695,0.9996,-0.0097,0.0079,-0.0271,0.0358,0.0160,0.1948,0
6026862,0.9996,-0.0098,0.0079,-0.0271,0.0287,0.0270,0.2103,0
6027028,0.9996,-0.0097,0.0079,-0.0271,0.0107,0.0164,0.2182,0
6027195,0.9996,-0.0097,0.0079,-0.0271,0.0071,0.0122,0.2141,0
6027362,0.9996,-0.0098,0.0079,-0.0271,-0.0026,0.0287,0.1985,0
6027528,0.9996,-0.0098,0.0079,-0.0271,0.0275,0.0222,0.2060,0
6027695,0.9996,-0.0098,0.0079,-0.0271,0.0292,0.0254,0.2260,0
6027862,0.9996,-0.0097,0.0079,-0.0271,0.0277,0.0104,0.2154,0
6028028,0.9996,-0.0098,0.0079,-0.0271,0.0236,0.0121,0.1815,0
6028695,0.9996,-0.0098,0.0079,-0.0271,0.0218,0.0112,0.2057,0
6028862,0.9996,-0.0098,0.0079,-0.0271,0.0089,0.0080,0.2091,0
6029028,0.9996,-0.0097,0.0079,-0.0271,0.0192,0.0232,0.1861,0
6029195,0.9996,-0.0097,0.0079,-0.0271,0.0103,0.0339,0.2154,0
6029362,0.9996,-0.0097,0.0079,-0.0271,0.0146,0.0115,0.2294,0
6029862,0.9996,-0.0097,0.0079,-0.0271,0.0289,0.0077,0.2187,0
6030028,0.9996,-0.0097,0.0079,-0.0271,0.0227,0.0266,0.2093,0
6030195,0.9996,-0.0097,0.0079,-0.0271,0.0287,0.0202,0.1955,0
6030362,0.9996,-0.0097,0.0079,-0.0271,0.0183,0.0247,0.2145,0
6030528,0.9996,-0.0097,0.0079,-0.0271,0.0157,0.0191,0.2151,0
6030695,0.9996,-0.0097,0.0079,-0.0271,0.0319,0.0099,0.2008,0
6030862,0.9996,-0.0097,0.0079,-0.0271,0.0239,0.0023,0.2149,0
6031028,0.9996,-0.0097,0.0079,-0.0271,0.0090,0.0174,0.2073,0
6031195,0.9996,-0.0097,0.0079,-0.0271,0.0169,0.0233,0.1993,0
6031362,0.9996,-0.0098,0.0079,-0.0271,0.0200,0.0296,0.2087,0
6031528,0.9996,-0.0098,0.0079,-0.0271,0.0176,0.0102,0.2034,0
6031695,0.9996,-0.0098,0.0079,-0.0271,0.0063,0.0062,0.1754,0
6031862,0.9996,-0.0097,0.0079,-0.0271,0.0161,0.0265,0.2136,0
6032028,0.9996,-0.0097,0.0079,-0.0271,0.0149,0.0254,0.1996,0
6032195,0.9996,-0.0097,0.0079,-0.0271,0.0238,0.0171,0.1848,0
6032362,0.9996,-0.0097,0.0079,-0.0271,0.0396,0.0142,0.2327,0
6032528,0.9996,-0.0098,0.0079,-0.0271,0.0032,0.0334,0.2154,0
6032695,0.9996,-0.0097,0.0079,-0.0271,0.0245,0.0153,0.1938,0
6032862,0.9996,-0.0097,0.0079,-0.0271,0.0282,0.0150,0.1821,0
6033028,0.9996,-0.0097,0.0079,-0.0271,0.0298,0.0211,0.2023,0
6033362,0.9996,-0.0097,0.0079,-0.0271,0.0092,0.0195,0.2139,0
6033528,0.9996,-0.0097,0.0079,-0.0271,0.0029,0.0152,0.1734,0
6033695,0.9996,-0.0097,0.0079,-0.0271,0.0296,0.0202,0.2315,0
6034028,0.9996,-0.0097,0.0079,-0.0272,0.0336,-0.0010,0.1992,0
6034195,0.9996,-0.0097,0.0079,-0.0272,0.0264,0.0372,0.2122,0
6034362,0.9996,-0.0097,0.0079,-0.0272,0.0071,0.0240,0.2056,0
6034528,0.9996,-0.0097,0.0079,-0.0272,0.0141,0.0058,0.2228,0
6034695,0.9996,-0.0097,0.0079,-0.0272,0.0168,0.0188,0.2014,0
6034862,0.9996,-0.0097,0.0079,-0.0272,0.0347,0.0385,0.1878,0
6035028,0.9996,-0.0097,0.0079,-0.0272,0.0356,0.0217,0.2186,0
6035195,0.9996,-0.0097,0.0079,-0.0272,0.0173,0.0258,0.2136,0
6035362,0.9996,-0.0097,0.0079,-0.0272,0.0122,0.0078,0.1986,0
6035528,0.9996,-0.0097,0.0079,-0.0272,0.0211,0.0324,0.1987,0
6035695,0.9996,-0.0097,0.0079,-0.0272,0.0238,0.0104,0.2151,0
6035862,0.9996,-0.0097,0.0079,-0.0272,0.0224,0.0225,0.1885,0
6036195,0.9996,-0.0097,0.0079,-0.0272,0.0103,0.0128,0.2090,0
6036362,0.9996,-0.0097,0.0079,-0.0272,0.0134,0.0101,0.1968,0
6036528,0.9996,-0.0097,0.0079,-0.0272,0.0254,0.0214,0.1931,0
6036695,0.9996,-0.0097,0.0079,-0.0272,0.0181,0.0135,0.1807,0
6036862,0.9996,-0.0098,0.0079,-0.0271,0.0125,0.0151,0.2163,0
6037028,0.9996,-0.0098,0.0079,-0.0271,0.0262,0.0151,0.2161,0
6037195,0.9996,-0.0098,0.0079,-0.0271,0.0091,0.0233,0.1934,0
6037362,0.9996,-0.0098,0.0079,-0.0271,0.0216,0.0178,0.1877,0
6037529,0.9996,-0.0098,0.0079,-0.0271,0.0209,0.0201,0.2104,0
6037695,0.9996,-0.0098,0.0079,-0.0271,0.0310,0.0083,0.1963,0
6037862,0.9996,-0.0098,0.0079,-0.0271,0.0156,0.0191,0.1782,0
6038029,0.9996,-0.0098,0.0079,-0.0271,0.0236,0.0177,0.2100,0
6038195,0.9996,-0.0098,0.0079,-0.0271,0.0130,0.0217,0.2089,0
6038362,0.9996,-0.0098,0.0079,-0.0271,0.0150,0.0166,0.2089,0
6038529,0.9996,-0.0098,0.0079,-0.0271,0.0242,0.0238,0.1880,0
6038695,0.9996,-0.0098,0.0079,-0.0271,0.0178,0.0285,0.1965,0
6038862,0.9996,-0.0098,0.0079,-0.0271,0.0217,0.0207,0.2201,0
6039029,0.9996,-0.0098,0.0079,-0.0271,0.0054,0.0241,0.2123,0
6039195,0.9996,-0.0098,0.0079,-0.0271,0.0089,0.0189,0.2183,0
6039362,0.9996,-0.0098,0.0079,-0.0271,0.0246,0.0258,0.2130,0
6039529,0.9996,-0.0098,0.0079,-0.0271,0.0201,0.0184,0.1912,0
6039695,0.9996,-0.0098,0.0079,-0.0271,0.0285,0.0124,0.1876,0
6039862,0.9996,-0.0098,0.0078,-0.0271,0.0265,0.0073,0.1965,0
6040029,0.9996,-0.0098,0.0078,-0.0271,0.0304,0.0214,0.2170,0
6040695,0.9996,-0.0098,0.0078,-0.0271,0.0050,0.0139,0.1978,0
6040862,0.9996,-0.0098,0.0078,-0.0271,0.0204,0.0230,0.2161,0
6041029,0.9996,-0.0098,0.0078,-0.0271,0.0169,0.0254,0.1778,0
6041195,0.9996,-0.0098,0.0078,-0.0271,0.0179,0.0158,0.2103,0
6041362,0.9996,-0.0099,0.0078,-0.0271,0.0153,0.0236,0.2284,0
6041529,0.9996,-0.0098,0.0078,-0.0271,0.0303,0.0084,0.1879,0
6041862,0.9996,-0.0098,0.0078,-0.0271,0.0197,0.0190,0.1897,0
6042029,0.9996,-0.0098,0.0078,-0.0271,-0.0077,0.0206,0.1898,0
6042195,0.9996,-0.0098,0.0078,-0.0271,-0.0026,0.0239,0.2172,0
6042695,0.9996,-0.0099,0.0078,-0.0271,0.0257,0.0141,0.1961,0
6042862,0.9996,-0.0099,0.0078,-0.0271,0.0324,0.0287,0.2244,0
6043029,0.9996,-0.0099,0.0078,-0.0271,0.0061,0.0292,0.2018,0
6043362,0.9996,-0.0099,0.0078,-0.0271,0.0196,0.0161,0.2353,0
6043529,0.9996,-0.0099,0.0078,-0.0271,0.0235,0.0141,0.2008,0
6043695,0.9996,-0.0099,0.0078,-0.0271,0.0165,0.0188,0.1835,0
6043862,0.9996,-0.0099,0.0078,-0.0271,0.0171,0.0284,0.2281,0
6044029,0.9996,-0.0099,0.0078,-0.0271,-0.0015,0.0263,0.2048,0
6044195,0.9996,-0.0099,0.0078,-0.0271,0.0039,0.0141,0.2140,0
6044362,0.9996,-0.0099,0.0078,-0.0271,0.0210,0.0170,0.2001,0
6044529,0.9996,-0.0099,0.0078,-0.0271,0.0278,0.0177,0.2015,0
6044862,0.9996,-0.0099,0.0078,-0.0271,0.0207,0.0120,0.2270,0
6045029,0.9996,-0.0099,0.0078,-0.0271,0.0071,0.0277,0.2010,0
6045195,0.9996,-0.0099,0.0078,-0.0271,0.0138,0.0118,0.1947,0
6045362,0.9996,-0.0099,0.0078,-0.0271,0.0150,0.0273,0.2048,0
6045529,0.9996,-0.0099,0.0078,-0.0271,0.0282,0.0207,0.1759,0
6045695,0.9996,-0.0099,0.0078,-0.0271,0.0351,0.0224,0.2034,0
6046029,0.9996,-0.0099,0.0078,-0.0271,0.0087,0.0109,0.2050,0
6046195,0.9996,-0.0099,0.0078,-0.0271,0.0041,0.0240,0.2013,0
6046362,0.9996,-0.0099,0.0078,-0.0271,-0.0028,0.0288,0.2035,0
6046862,0.9996,-0.0099,0.0078,-0.0271,0.0214,0.0207,0.2339,0
6047029,0.9996,-0.0099,0.0078,-0.0271,0.0009,0.0284,0.1805,0
6047195,0.9996,-0.0099,0.0078,-0.0271,0.0087,0.0188,0.2051,0
6047529,0.9996,-0.0099,0.0078,-0.0271,0.0214,0.0054,0.1766,0
6047695,0.9996,-0.0099,0.0078,-0.0271,0.0318,0.0100,0.2189,0
6047862,0.9996,-0.0099,0.0078,-0.0271,0.0257,0.0112,0.1697,0
6048195,0.9996,-0.0099,0.0078,-0.0271,0.0150,0.0374,0.2174,0
6048362,0.9996,-0.0099,0.0078,-0.0271,0.0076,0.0210,0.2020,0
6048529,0.9996,-0.0099,0.0078,-0.0271,0.0149,0.0174,0.2316,0
6048695,0.9996,-0.0099,0.0078,-0.0271,0.0170,0.0158,0.2099,0
6048862,0.9996,-0.0099,0.0078,-0.0271,0.0145,0.0110,0.2144,0
6049029,0.9996,-0.0099,0.0078,-0.0271,0.0207,0.0217,0.1803,0
6049195,0.9996,-0.0098,0.0078,-0.0271,0.0047,0.0258,0.1865,0
6049362,0.9996,-0.0099,0.0078,-0.0271,-0.0019,0.0235,0.2203,0
6049529,0.9996,-0.0098,0.0078,-0.0271,0.0285,0.0322,0.1858,0
6049695,0.9996,-0.0098,0.0078,-0.0271,0.0407,0.0053,0.2113,0
6049862,0.9996,-0.0098,0.0078,-0.0271,0.0139,0.0169,0.2123,0
6050029,0.9996,-0.0099,0.0078,-0.0271,-0.0010,0.0150,0.2116,0
6050195,0.9996,-0.0099,0.0078,-0.0271,0.0177,0.0216,0.2036,0
6050362,0.9996,-0.0099,0.0078,-0.0271,0.0313,0.0209,0.2108,0
6050529,0.9996,-0.0099,0.0078,-0.0271,0.0258,0.0119,0.1923,0
6050695,0.9996,-0.0099,0.0078,-0.0271,0.0240,0.0116,0.2238,0
6050862,0.9996,-0.0099,0.0078,-0.0271,0.0279,0.0206,0.2048,0
6051029,0.9996,-0.0099,0.0078,-0.0271,0.0078,0.0099,0.2152,0
6051195,0.9996,-0.0099,0.0078,-0.0271,-0.0013,0.0289,0.2333,0
6051362,0.9996,-0.0099,0.0078,-0.0271,0.0163,0.0267,0.2050,0
