DeviceTag: nicolashumerus_l,FirmwareVersion: 2.2.1,AppVersion: 2022.2.0,SyncStatus: Unknown (Synced/Un-synced),OutputRate: 60,FilterProfile: Unknown,Measurement Mode: Sensor fusion Mode - Extended (Quaternion),StartTime: 2023-06-12 11:03:02.574,© Movella Technologies B.V. 2005-2023
SampleTimeFine,Quat_W,Quat_X,Quat_Y,Quat_Z,FreeAcc_X,FreeAcc_Y,FreeAcc_Z,Status
22956429,0.1367,-0.6871,-0.1097,-0.7051,-0.0101,-0.0167,-0.1152,0
22956595,0.1361,-0.6872,-0.1093,-0.7052,-0.0493,-0.0165,-0.1081,0
22956762,0.1359,-0.6873,-0.1094,-0.7051,0.0182,-0.0026,-0.1158,0
22956929,0.1356,-0.6873,-0.1092,-0.7052,-0.0196,-0.0101,-0.1089,0
22957095,0.1354,-0.6873,-0.1091,-0.7053,-0.0210,-0.0135,-0.1223,0
22957262,0.1350,-0.6873,-0.1089,-0.7054,-0.0252,-0.0013,-0.1088,0
22957429,0.1342,-0.6873,-0.1082,-0.7056,0.0003,0.0143,-0.1080,0
22957595,0.1338,-0.6873,-0.1078,-0.7058,-0.0330,0.0046,-0.0943,0
22957762,0.1333,-0.6872,-0.1073,-0.7060,-0.0151,0.0028,-0.1036,0
22957929,0.1330,-0.6872,-0.1070,-0.7061,-0.0579,-0.0139,-0.1005,0
22958095,0.1330,-0.6871,-0.1070,-0.7062,-0.0390,0.0032,-0.0998,0
22958262,0.1327,-0.6870,-0.1068,-0.7064,-0.0525,0.0007,-0.1014,0
22958429,0.1325,-0.6870,-0.1066,-0.7065,-0.0446,-0.0081,-0.1034,0
22958595,0.1325,-0.6869,-0.1066,-0.7066,-0.0620,-0.0105,-0.0945,0
22958762,0.1322,-0.6868,-0.1063,-0.7067,-0.0309,-0.0038,-0.1039,0
22958929,0.1320,-0.6868,-0.1062,-0.7069,-0.0493,0.0036,-0.1054,0
22959095,0.1322,-0.6866,-0.1063,-0.7069,-0.0583,-0.0029,-0.1026,0
22959262,0.1321,-0.6865,-0.1063,-0.7070,-0.0347,-0.0008,-0.0947,0
22959429,0.1322,-0.6864,-0.1064,-0.7071,-0.0296,0.0101,-0.1227,0
22959595,0.1322,-0.6863,-0.1064,-0.7072,-0.0740,-0.0076,-0.1144,0
22959762,0.1321,-0.6862,-0.1063,-0.7074,-0.0608,-0.0065,-0.0954,0
22959929,0.1322,-0.6861,-0.1064,-0.7074,-0.0693,0.0027,-0.1011,0
22960095,0.1321,-0.6860,-0.1064,-0.7076,-0.0717,-0.0065,-0.1043,0
22960262,0.1321,-0.6859,-0.1064,-0.7077,-0.0889,-0.0081,-0.1111,0
22960429,0.1322,-0.6858,-0.1064,-0.7078,-0.0623,0.0021,-0.0983,0
22960595,0.1321,-0.6856,-0.1064,-0.7079,-0.0739,-0.0002,-0.1076,0
22960762,0.1321,-0.6855,-0.1065,-0.7080,-0.0655,-0.0128,-0.1068,0
22960929,0.1322,-0.6854,-0.1065,-0.7081,-0.0816,-0.0035,-0.0914,0
22961095,0.1321,-0.6853,-0.1064,-0.7082,-0.0828,0.0029,-0.1145,0
22961262,0.1320,-0.6852,-0.1063,-0.7083,-0.1045,-0.0017,-0.0985,0
22961429,0.1320,-0.6851,-0.1063,-0.7085,-0.0918,-0.0128,-0.1209,0
22961595,0.1319,-0.6850,-0.1063,-0.7086,-0.0757,0.0128,-0.1096,0
22961762,0.1319,-0.6849,-0.1063,-0.7087,-0.0858,-0.0084,-0.1097,0
22961929,0.1317,-0.6848,-0.1062,-0.7088,-0.1021,0.0009,-0.1074,0
22962095,0.1317,-0.6847,-0.1062,-0.7089,-0.1067,-0.0064,-0.0911,0
22962262,0.1316,-0.6846,-0.1061,-0.7091,-0.0990,-0.0115,-0.1229,0
22962429,0.1316,-0.6845,-0.1061,-0.7092,-0.1005,-0.0024,-0.1022,0
22962595,0.1315,-0.6844,-0.1061,-0.7093,-0.1171,-0.0045,-0.0984,0
22962762,0.1315,-0.6843,-0.1060,-0.7094,-0.1213,-0.0211,-0.1027,0
22962929,0.1315,-0.6842,-0.1060,-0.7095,-0.1223,-0.0073,-0.0939,0
22963095,0.1313,-0.6841,-0.1059,-0.7096,-0.1314,-0.0083,-0.1030,0
22963262,0.1313,-0.6840,-0.1058,-0.7097,-0.1071,-0.0208,-0.1005,0
22963429,0.1313,-0.6839,-0.1058,-0.7099,-0.1173,-0.0014,-0.1049,0
22963595,0.1312,-0.6838,-0.1058,-0.7100,-0.1451,-0.0002,-0.0978,0
22963762,0.1311,-0.6837,-0.1057,-0.7101,-0.1402,-0.0053,-0.0994,0
22963929,0.1311,-0.6836,-0.1057,-0.7102,-0.1305,-0.0185,-0.1035,0
22964095,0.1310,-0.6835,-0.1057,-0.7103,-0.1385,-0.0027,-0.0995,0
22964262,0.1310,-0.6834,-0.1057,-0.7104,-0.1349,-0.0100,-0.0989,0
22964429,0.1309,-0.6833,-0.1056,-0.7105,-0.1115,-0.0099,-0.1035,0
22964595,0.1309,-0.6832,-0.1056,-0.7106,-0.1511,-0.0090,-0.1101,0
22964762,0.1308,-0.6831,-0.1055,-0.7108,-0.1300,-0.0235,-0.1012,0
22964929,0.1308,-0.6830,-0.1055,-0.7109,-0.1616,-0.0314,-0.1102,0
22965095,0.1307,-0.6829,-0.1055,-0.7110,-0.1435,-0.0034,-0.1050,0
22965262,0.1306,-0.6828,-0.1054,-0.7111,-0.1656,-0.0170,-0.1050,0
22965429,0.1305,-0.6827,-0.1053,-0.7112,-0.1663,-0.0017,-0.1032,0
22965595,0.1304,-0.6826,-0.1053,-0.7113,-0.1821,-0.0073,-0.1107,0
22965762,0.1304,-0.6825,-0.1052,-0.7115,-0.1621,-0.0174,-0.1094,0
22965929,0.1303,-0.6824,-0.1051,-0.7116,-0.1547,-0.0040,-0.1061,0
22966095,0.1303,-0.6823,-0.1051,-0.7117,-0.1561,-0.0150,-0.1017,0
22966262,0.1302,-0.6822,-0.1050,-0.7118,-0.1757,-0.0211,-0.1100,0
22966429,0.1301,-0.6821,-0.1050,-0.7119,-0.1648,-0.0159,-0.1006,0
22966595,0.1300,-0.6820,-0.1049,-0.7120,-0.1736,-0.0112,-0.1153,0
22966762,0.1299,-0.6819,-0.1048,-0.7121,-0.1877,-0.0239,-0.1028,0
22966929,0.1298,-0.6818,-0.1047,-0.7122,-0.1881,-0.0117,-0.1247,0
22967095,0.1298,-0.6817,-0.1047,-0.7124,-0.1662,-0.0007,-0.1001,0
22967262,0.1297,-0.6816,-0.1046,-0.7125,-0.1845,-0.0224,-0.1230,0
22967429,0.1296,-0.6815,-0.1045,-0.7126,-0.1955,-0.0107,-0.1140,0
22967595,0.1295,-0.6815,-0.1045,-0.7127,-0.1809,-0.0127,-0.1079,0
22967762,0.1294,-0.6814,-0.1044,-0.7128,-0.2057,-0.0206,-0.1018,0
22967929,0.1293,-0.6813,-0.1043,-0.7129,-0.2059,-0.0183,-0.1021,0
22968095,0.1292,-0.6812,-0.1042,-0.7130,-0.1940,-0.0228,-0.1111,0
22968262,0.1292,-0.6811,-0.1041,-0.7131,-0.1992,-0.0179,-0.1070,0
22968429,0.1291,-0.6810,-0.1041,-0.7133,-0.2042,-0.0239,-0.1079,0
22968596,0.1290,-0.6809,-0.1040,-0.7134,-0.1995,-0.0127,-0.1138,0
22968762,0.1289,-0.6809,-0.1039,-0.7135,-0.2105,-0.0207,-0.1051,0
22968929,0.1288,-0.6808,-0.1038,-0.7136,-0.2237,-0.0174,-0.1131,0
22969096,0.1287,-0.6807,-0.1037,-0.7137,-0.2217,-0.0169,-0.1128,0
22969262,0.1286,-0.6806,-0.1036,-0.7138,-0.2140,-0.0191,-0.1086,0
22969429,0.1285,-0.6805,-0.1035,-0.7139,-0.2386,-0.0253,-0.1037,0
22969596,0.1284,-0.6804,-0.1035,-0.7140,-0.2242,-0.0283,-0.1065,0
22969762,0.1283,-0.6803,-0.1034,-0.7141,-0.2363,-0.0236,-0.1065,0
22969929,0.1282,-0.6803,-0.1033,-0.7142,-0.2393,-0.0164,-0.1050,0
22970096,0.1281,-0.6802,-0.1032,-0.7143,-0.2262,-0.0082,-0.1140,0
22970262,0.1280,-0.6801,-0.1031,-0.7144,-0.2368,-0.0128,-0.1016,0
22970429,0.1279,-0.6800,-0.1031,-0.7145,-0.2384,-0.0176,-0.1104,0
22970596,0.1278,-0.6800,-0.1030,-0.7146,-0.2307,-0.0278,-0.1066,0
22970762,0.1277,-0.6799,-0.1029,-0.7147,-0.2340,-0.0179,-0.1100,0
22970929,0.1276,-0.6798,-0.1028,-0.7148,-0.2447,-0.0204,-0.1068,0
22971096,0.1275,-0.6797,-0.1027,-0.7149,-0.2564,-0.0274,-0.1051,0
22971262,0.1274,-0.6797,-0.1026,-0.7151,-0.2362,-0.0162,-0.1152,0
22971429,0.1273,-0.6796,-0.1025,-0.7152,-0.2729,-0.0175,-0.1126,0
22971596,0.1271,-0.6795,-0.1024,-0.7153,-0.2494,-0.0207,-0.1002,0
22971762,0.1270,-0.6795,-0.1023,-0.7153,-0.2747,-0.0404,-0.0898,0
22971929,0.1269,-0.6794,-0.1022,-0.7154,-0.2502,-0.0057,-0.1008,0
22972096,0.1268,-0.6793,-0.1021,-0.7155,-0.2452,-0.0073,-0.1026,0
22972262,0.1267,-0.6793,-0.1020,-0.7156,-0.2573,-0.0271,-0.1091,0
22972429,0.1266,-0.6792,-0.1019,-0.7157,-0.2622,-0.0202,-0.1021,0
22972596,0.1265,-0.6791,-0.1019,-0.7158,-0.2755,-0.0111,-0.1060,0
22972762,0.1263,-0.6791,-0.1017,-0.7159,-0.2813,-0.0286,-0.1012,0
22972929,0.1262,-0.6790,-0.1016,-0.7160,-0.2735,-0.0229,-0.1171,0
22973096,0.1261,-0.6790,-0.1015,-0.7161,-0.2819,-0.0181,-0.1011,0
22973262,0.1260,-0.6789,-0.1014,-0.7162,-0.2723,-0.0287,-0.1096,0
22973429,0.1259,-0.6789,-0.1013,-0.7163,-0.2847,-0.0252,-0.1105,0
22973596,0.1258,-0.6788,-0.1012,-0.7164,-0.2810,-0.0106,-0.1190,0
22973762,0.1257,-0.6787,-0.1011,-0.7164,-0.2708,-0.0020,-0.1178,0
22973929,0.1255,-0.6787,-0.1010,-0.7165,-0.2802,-0.0274,-0.1173,0
22974096,0.1254,-0.6786,-0.1009,-0.7166,-0.2796,-0.0108,-0.1108,0
22974262,0.1253,-0.6786,-0.1008,-0.7167,-0.2601,-0.0138,-0.0965,0
22974429,0.1252,-0.6785,-0.1007,-0.7168,-0.2895,-0.0126,-0.1040,0
22974596,0.1251,-0.6785,-0.1006,-0.7169,-0.2762,-0.0228,-0.1199,0
22974762,0.1249,-0.6784,-0.1005,-0.7170,-0.3010,-0.0337,-0.1035,0
22974929,0.1248,-0.6784,-0.1004,-0.7170,-0.2731,-0.0197,-0.1106,0
22975096,0.1247,-0.6783,-0.1003,-0.7171,-0.3191,-0.0382,-0.1163,0
22975262,0.1245,-0.6783,-0.1001,-0.7172,-0.3053,-0.0344,-0.0983,0
22975429,0.1244,-0.6783,-0.1000,-0.7173,-0.3138,-0.0400,-0.1151,0
22975596,0.1243,-0.6782,-0.0999,-0.7174,-0.3096,-0.0361,-0.1021,0
22975762,0.1242,-0.6782,-0.0998,-0.7174,-0.3009,-0.0090,-0.1164,0
22975929,0.1240,-0.6781,-0.0997,-0.7175,-0.3145,-0.0201,-0.1056,0
22976096,0.1431,-0.6868,-0.1163,-0.7030,0.0194,-0.0003,-0.0952,0
22976262,0.1430,-0.6868,-0.1161,-0.7031,-0.0031,-0.0147,-0.0968,0
22976429,0.1429,-0.6869,-0.1161,-0.7031,-0.0099,0.0019,-0.1014,0
22976596,0.1428,-0.6869,-0.1160,-0.7031,0.0187,0.0107,-0.1042,0
22976762,0.1428,-0.6869,-0.1160,-0.7031,-0.0168,-0.0088,-0.0965,0
22976929,0.1427,-0.6869,-0.1159,-0.7031,0.0092,-0.0085,-0.1095,0
22977096,0.1426,-0.6869,-0.1158,-0.7032,0.0315,0.0100,-0.0975,0
22977262,0.1425,-0.6869,-0.1157,-0.7032,-0.0009,-0.0068,-0.1116,0
22977429,0.1424,-0.6869,-0.1157,-0.7032,0.0227,0.0099,-0.1020,0
22977596,0.1424,-0.6869,-0.1156,-0.7032,-0.0172,0.0122,-0.1076,0
22977762,0.1423,-0.6869,-0.1155,-0.7032,-0.0066,0.0029,-0.0943,0
22977929,0.1422,-0.6869,-0.1154,-0.7033,0.0131,-0.0053,-0.0893,0
22978096,0.1422,-0.6869,-0.1154,-0.7033,-0.0078,0.0063,-0.0951,0
22978262,0.1421,-0.6869,-0.1153,-0.7033,0.0021,-0.0058,-0.1075,0
22978429,0.1421,-0.6870,-0.1153,-0.7033,0.0204,0.0122,-0.1114,0
22978596,0.1420,-0.6870,-0.1152,-0.7033,0.0319,0.0019,-0.0951,0
22978762,0.1419,-0.6870,-0.1151,-0.7033,-0.0046,0.0068,-0.1026,0
22978929,0.1419,-0.6870,-0.1150,-0.7034,-0.0137,-0.0131,-0.1062,0
22979096,0.1418,-0.6870,-0.1150,-0.7034,-0.0155,-0.0146,-0.0996,0
22979262,0.1417,-0.6870,-0.1149,-0.7034,0.0176,0.0092,-0.1135,0
22979429,0.1416,-0.6870,-0.1148,-0.7034,0.0010,-0.0016,-0.1070,0
22979596,0.1416,-0.6870,-0.1148,-0.7034,-0.0056,0.0030,-0.0931,0
22979762,0.1415,-0.6870,-0.1147,-0.7034,-0.0034,-0.0091,-0.0962,0
22979929,0.1415,-0.6870,-0.1147,-0.7034,-0.0158,-0.0008,-0.1030,0
22980096,0.1415,-0.6870,-0.1146,-0.7034,0.0117,0.0186,-0.1015,0
22980262,0.1414,-0.6870,-0.1146,-0.7035,0.0062,0.0158,-0.1061,0
22980429,0.1413,-0.6870,-0.1145,-0.7035,0.0069,-0.0070,-0.1233,0
22980596,0.1413,-0.6870,-0.1145,-0.7035,-0.0085,-0.0042,-0.0904,0
22980762,0.1412,-0.6870,-0.1144,-0.7035,0.0014,0.0046,-0.1048,0
22980929,0.1412,-0.6871,-0.1144,-0.7035,-0.0171,-0.0119,-0.0862,0
22981096,0.1411,-0.6871,-0.1143,-0.7035,0.0016,-0.0101,-0.1053,0
22981262,0.1410,-0.6871,-0.1142,-0.7035,-0.0000,-0.0040,-0.1003,0
22981429,0.1410,-0.6871,-0.1142,-0.7036,-0.0083,-0.0095,-0.1035,0
22981596,0.1409,-0.6871,-0.1141,-0.7036,-0.0178,-0.0081,-0.0973,0
22981762,0.1408,-0.6871,-0.1140,-0.7036,0.0024,0.0003,-0.1007,0
22981929,0.1408,-0.6871,-0.1140,-0.7036,-0.0020,-0.0173,-0.1094,0
22982096,0.1407,-0.6871,-0.1139,-0.7036,0.0215,-0.0037,-0.0913,0
22982262,0.1407,-0.6871,-0.1139,-0.7036,-0.0213,-0.0176,-0.0976,0
22982429,0.1407,-0.6871,-0.1139,-0.7036,0.0003,-0.0102,-0.1121,0
22982596,0.1406,-0.6872,-0.1138,-0.7036,-0.0199,-0.0147,-0.1027,0
22982762,0.1405,-0.6872,-0.1138,-0.7037,0.0035,-0.0047,-0.1076,0
22982929,0.1405,-0.6872,-0.1138,-0.7036,-0.0172,-0.0051,-0.1074,0
22983096,0.1405,-0.6872,-0.1137,-0.7037,-0.0055,0.0024,-0.0924,0
22983262,0.1404,-0.6872,-0.1137,-0.7037,0.0031,-0.0012,-0.0986,0
22983429,0.1404,-0.6872,-0.1136,-0.7037,0.0025,-0.0069,-0.0961,0
22983596,0.1403,-0.6872,-0.1135,-0.7037,-0.0027,0.0049,-0.1044,0
22983762,0.1403,-0.6872,-0.1135,-0.7037,0.0118,0.0074,-0.1019,0
22983929,0.1402,-0.6872,-0.1134,-0.7037,-0.0045,-0.0074,-0.1131,0
22984096,0.1402,-0.6872,-0.1134,-0.7037,-0.0058,0.0097,-0.1098,0
22984262,0.1402,-0.6872,-0.1134,-0.7037,-0.0193,-0.0091,-0.1122,0
22984429,0.1402,-0.6872,-0.1133,-0.7037,-0.0056,-0.0163,-0.1136,0
22984596,0.1401,-0.6872,-0.1133,-0.7037,-0.0341,-0.0199,-0.1055,0
22984762,0.1401,-0.6872,-0.1133,-0.7037,-0.0024,0.0012,-0.1080,0
22984929,0.1401,-0.6872,-0.1133,-0.7037,-0.0184,-0.0069,-0.0974,0
22985096,0.1400,-0.6872,-0.1132,-0.7038,0.0004,0.0088,-0.1120,0
22985263,0.1400,-0.6873,-0.1132,-0.7038,-0.0217,-0.0070,-0.1001,0
22985429,0.1399,-0.6873,-0.1131,-0.7038,0.0161,0.0003,-0.0985,0
22985596,0.1399,-0.6873,-0.1130,-0.7038,0.0144,0.0006,-0.1059,0
22985763,0.1398,-0.6873,-0.1130,-0.7038,0.0022,-0.0062,-0.1178,0
22985929,0.1398,-0.6873,-0.1130,-0.7038,-0.0173,-0.0135,-0.1015,0
22986096,0.1397,-0.6873,-0.1129,-0.7038,0.0279,-0.0022,-0.0915,0
22986263,0.1397,-0.6873,-0.1129,-0.7038,-0.0579,-0.0096,-0.1167,0
22986429,0.1397,-0.6873,-0.1128,-0.7038,0.0256,0.0040,-0.1253,0
22986596,0.1396,-0.6873,-0.1128,-0.7038,-0.0294,-0.0281,-0.0775,0
22986763,0.1396,-0.6873,-0.1128,-0.7039,0.0453,0.0134,-0.1327,0
22986929,0.1396,-0.6873,-0.1128,-0.7038,-0.0556,-0.0134,-0.0954,0
22987096,0.1395,-0.6873,-0.1127,-0.7039,0.0326,0.0049,-0.1110,0
22987263,0.1395,-0.6873,-0.1127,-0.7039,-0.0200,-0.0086,-0.0965,0
22987429,0.1395,-0.6873,-0.1127,-0.7039,0.0300,0.0148,-0.1166,0
22987596,0.1395,-0.6874,-0.1126,-0.7038,-0.0426,-0.0166,-0.0995,0
22987763,0.1394,-0.6873,-0.1126,-0.7039,0.0236,0.0120,-0.1152,0
22987929,0.1394,-0.6874,-0.1126,-0.7039,-0.0030,-0.0129,-0.0965,0
22988096,0.1394,-0.6873,-0.1125,-0.7039,0.0367,-0.0028,-0.0874,0
22988263,0.1393,-0.6874,-0.1125,-0.7039,-0.0233,-0.0104,-0.1149,0
22988429,0.1393,-0.6873,-0.1125,-0.7039,0.0224,0.0012,-0.1066,0
22988596,0.1393,-0.6874,-0.1124,-0.7039,-0.0241,-0.0027,-0.0960,0
22988763,0.1393,-0.6874,-0.1124,-0.7039,0.0164,0.0082,-0.0919,0
22988929,0.1393,-0.6874,-0.1124,-0.7039,-0.0257,-0.0101,-0.0988,0
22989096,0.1393,-0.6874,-0.1124,-0.7039,-0.0006,0.0129,-0.1005,0
22989263,0.1392,-0.6874,-0.1124,-0.7039,-0.0034,-0.0220,-0.0984,0
22989429,0.1392,-0.6874,-0.1123,-0.7039,0.0007,-0.0220,-0.1171,0
22989596,0.1391,-0.6874,-0.1123,-0.7039,0.0006,-0.0196,-0.0757,0
22989763,0.1391,-0.6874,-0.1122,-0.7040,-0.0145,-0.0321,-0.1257,0
22989929,0.1391,-0.6874,-0.1122,-0.7039,-0.0150,0.0149,-0.1049,0
22990096,0.1391,-0.6874,-0.1122,-0.7039,-0.0076,-0.0048,-0.0823,0
22990263,0.1391,-0.6875,-0.1122,-0.7039,0.0112,-0.0021,-0.0955,0
22990429,0.1390,-0.6874,-0.1121,-0.7039,-0.0152,-0.0157,-0.1146,0
22990596,0.1390,-0.6875,-0.1121,-0.7039,0.0181,-0.0024,-0.1218,0
22990763,0.1390,-0.6875,-0.1121,-0.7039,-0.0231,0.0009,-0.1098,0
22990929,0.1390,-0.6875,-0.1121,-0.7039,0.0231,0.0028,-0.0985,0
22991096,0.1390,-0.6875,-0.1121,-0.7039,-0.0335,-0.0235,-0.0905,0
22991263,0.1389,-0.6875,-0.1120,-0.7039,0.0319,0.0110,-0.1110,0
22991429,0.1389,-0.6875,-0.1120,-0.7039,-0.0383,-0.0294,-0.1196,0
22991596,0.1389,-0.6875,-0.1120,-0.7039,0.0406,0.0152,-0.1015,0
22991763,0.1390,-0.6875,-0.1120,-0.7039,-0.0350,-0.0059,-0.1098,0
22991929,0.1390,-0.6875,-0.1120,-0.7039,0.0508,0.0164,-0.1126,0
22992096,0.1389,-0.6875,-0.1120,-0.7039,-0.0430,-0.0268,-0.1018,0
22992263,0.1389,-0.6875,-0.1120,-0.7039,0.0339,-0.0004,-0.1136,0
22992429,0.1389,-0.6875,-0.1119,-0.7039,-0.0446,-0.0153,-0.1113,0
22992596,0.1389,-0.6875,-0.1119,-0.7039,0.0523,0.0215,-0.1223,0
22992763,0.1389,-0.6876,-0.1119,-0.7039,-0.0603,-0.0296,-0.0944,0
22992929,0.1389,-0.6876,-0.1119,-0.7039,0.0278,-0.0013,-0.1092,0
22993096,0.1389,-0.6875,-0.1119,-0.7039,-0.0455,-0.0159,-0.1113,0
22993263,0.1388,-0.6876,-0.1119,-0.7039,0.0344,0.0110,-0.1160,0
22993429,0.1388,-0.6876,-0.1118,-0.7039,-0.0523,-0.0217,-0.1042,0
22993596,0.1388,-0.6876,-0.1118,-0.7039,0.0416,0.0011,-0.1168,0
22993763,0.1388,-0.6876,-0.1118,-0.7039,-0.0494,-0.0200,-0.0785,0
22993929,0.1387,-0.6876,-0.1117,-0.7039,0.0359,0.0135,-0.1323,0
22994096,0.1387,-0.6876,-0.1117,-0.7039,-0.0112,-0.0111,-0.0848,0
22994263,0.1387,-0.6876,-0.1117,-0.7039,0.0227,-0.0004,-0.0865,0
22994429,0.1387,-0.6876,-0.1117,-0.7039,-0.0067,-0.0039,-0.1350,0
22994596,0.1387,-0.6876,-0.1117,-0.7039,0.0078,0.0050,-0.0990,0
22994763,0.1387,-0.6876,-0.1117,-0.7039,0.0135,0.0000,-0.1121,0
22994929,0.1386,-0.6876,-0.1116,-0.7039,-0.0031,-0.0077,-0.1039,0
22995096,0.1386,-0.6876,-0.1116,-0.7039,-0.0118,0.0041,-0.1061,0
22995263,0.1386,-0.6876,-0.1116,-0.7039,-0.0063,-0.0119,-0.1114,0
22995429,0.1386,-0.6876,-0.1116,-0.7039,-0.0079,-0.0102,-0.1093,0
22995596,0.1386,-0.6876,-0.1115,-0.7040,-0.0028,-0.0091,-0.1098,0
22995763,0.1385,-0.6876,-0.1115,-0.7039,0.0389,-0.0000,-0.1116,0
22995929,0.1385,-0.6876,-0.1115,-0.7040,-0.0202,-0.0005,-0.1193,0
22996096,0.1383,-0.6877,-0.1114,-0.7040,0.0233,0.0137,-0.0972,0
22996263,0.1383,-0.6876,-0.1114,-0.7040,-0.0128,-0.0200,-0.1018,0
22996429,0.1383,-0.6876,-0.1114,-0.7040,0.0235,0.0100,-0.1135,0
22996596,0.1383,-0.6876,-0.1114,-0.7040,-0.0238,-0.0115,-0.1008,0
22996763,0.1382,-0.6876,-0.1114,-0.7040,0.0103,0.0039,-0.0951,0
22996929,0.1382,-0.6876,-0.1113,-0.7040,-0.0155,-0.0127,-0.1117,0
22997096,0.1382,-0.6877,-0.1113,-0.7040,0.0136,-0.0012,-0.1197,0
22997263,0.1382,-0.6877,-0.1113,-0.7040,-0.0299,-0.0159,-0.1093,0
22997429,0.1382,-0.6877,-0.1113,-0.7040,-0.0059,-0.0099,-0.1171,0
22997596,0.1381,-0.6877,-0.1113,-0.7040,0.0054,0.0136,-0.1015,0
22997763,0.1381,-0.6877,-0.1113,-0.7040,0.0186,0.0052,-0.1092,0
22997929,0.1381,-0.6877,-0.1113,-0.7040,-0.0198,-0.0021,-0.1023,0
22998096,0.1381,-0.6877,-0.1113,-0.7040,0.0085,-0.0071,-0.1027,0
22998263,0.1380,-0.6877,-0.1112,-0.7040,-0.0105,-0.0078,-0.0980,0
22998429,0.1380,-0.6877,-0.1112,-0.7040,0.0018,-0.0086,-0.1093,0
22998596,0.1380,-0.6877,-0.1112,-0.7041,-0.0156,-0.0127,-0.1174,0
22998763,0.1379,-0.6877,-0.1112,-0.7041,0.0242,0.0057,-0.1072,0
22998929,0.1379,-0.6877,-0.1111,-0.7041,-0.0345,-0.0149,-0.0974,0
22999096,0.1379,-0.6877,-0.1111,-0.7041,0.0422,0.0076,-0.1093,0
22999263,0.1378,-0.6877,-0.1110,-0.7041,-0.0189,-0.0059,-0.1222,0
22999429,0.1378,-0.6877,-0.1110,-0.7041,-0.0087,0.0059,-0.1125,0
22999596,0.1378,-0.6877,-0.1110,-0.7041,-0.0316,-0.0081,-0.0938,0
22999763,0.1378,-0.6877,-0.1110,-0.7041,-0.0020,-0.0156,-0.1061,0
22999929,0.1378,-0.6877,-0.1110,-0.7041,-0.0191,-0.0056,-0.1073,0
23000096,0.1378,-0.6877,-0.1110,-0.7041,0.0248,-0.0104,-0.0920,0
23000263,0.1378,-0.6877,-0.1109,-0.7041,0.0018,0.0103,-0.1185,0
23000429,0.1377,-0.6877,-0.1109,-0.7041,0.0227,-0.0019,-0.1088,0
23000596,0.1377,-0.6877,-0.1109,-0.7041,-0.0304,-0.0027,-0.1023,0
23000763,0.1377,-0.6877,-0.1109,-0.7041,0.0022,-0.0122,-0.1132,0
23000929,0.1377,-0.6877,-0.1109,-0.7041,-0.0039,0.0022,-0.1021,0
23001096,0.1377,-0.6877,-0.1109,-0.7041,0.0001,-0.0070,-0.1040,0
23001263,0.1377,-0.6877,-0.1109,-0.7041,-0.0283,-0.0056,-0.1011,0
23001429,0.1377,-0.6877,-0.1109,-0.7041,-0.0094,-0.0021,-0.0936,0
23001596,0.1377,-0.6877,-0.1109,-0.7041,0.0058,-0.0072,-0.0932,0
23001763,0.1377,-0.6877,-0.1108,-0.7041,-0.0209,0.0009,-0.1038,0
23001930,0.1377,-0.6877,-0.1109,-0.7041,0.0181,-0.0054,-0.1080,0
23002096,0.1377,-0.6877,-0.1108,-0.7041,-0.0049,-0.0066,-0.1057,0
23002263,0.1377,-0.6877,-0.1108,-0.7041,-0.0007,0.0111,-0.1138,0
23002430,0.1376,-0.6877,-0.1108,-0.7042,-0.0008,-0.0049,-0.1014,0
23002596,0.1376,-0.6877,-0.1108,-0.7042,0.0077,-0.0050,-0.1168,0
23002763,0.1376,-0.6877,-0.1107,-0.7042,0.0040,-0.0010,-0.1095,0
23002930,0.1375,-0.6877,-0.1107,-0.7042,-0.0053,-0.0058,-0.1124,0
23003096,0.1375,-0.6877,-0.1107,-0.7042,-0.0106,-0.0035,-0.0930,0
23003263,0.1375,-0.6877,-0.1107,-0.7042,-0.0037,-0.0141,-0.1098,0
23003430,0.1375,-0.6877,-0.1107,-0.7042,0.0102,-0.0045,-0.1033,0
23003596,0.1375,-0.6877,-0.1107,-0.7042,-0.0242,-0.0093,-0.1046,0
23003763,0.1375,-0.6877,-0.1107,-0.7042,0.0188,-0.0135,-0.0958,0
23003930,0.1375,-0.6877,-0.1107,-0.7042,-0.0114,0.0069,-0.1090,0
23004096,0.1375,-0.6877,-0.1107,-0.7042,-0.0058,0.0091,-0.1357,0
23004263,0.1375,-0.6877,-0.1107,-0.7042,-0.0026,-0.0274,-0.0971,0
23004430,0.1375,-0.6877,-0.1107,-0.7042,0.0097,-0.0002,-0.1062,0
23004596,0.1375,-0.6878,-0.1107,-0.7042,-0.0043,0.0002,-0.0970,0
23004763,0.1375,-0.6878,-0.1106,-0.7042,-0.0205,0.0008,-0.1015,0
23004930,0.1375,-0.6878,-0.1106,-0.7042,-0.0264,-0.0145,-0.1037,0
23005096,0.1375,-0.6878,-0.1106,-0.7042,0.0138,-0.0246,-0.0831,0
23005263,0.1375,-0.6878,-0.1106,-0.7042,-0.0090,0.0234,-0.1467,0
23005430,0.1375,-0.6878,-0.1105,-0.7042,-0.0163,0.0131,-0.1085,0
23005596,0.1375,-0.6878,-0.1105,-0.7042,0.0049,-0.0174,-0.0762,0
23005763,0.1374,-0.6878,-0.1105,-0.7042,0.0229,-0.0023,-0.0978,0
23005930,0.1374,-0.6878,-0.1105,-0.7042,-0.0195,0.0082,-0.1183,0
23006096,0.1374,-0.6878,-0.1105,-0.7042,-0.0148,0.0036,-0.1174,0
23006263,0.1374,-0.6878,-0.1105,-0.7042,-0.0150,-0.0054,-0.0949,0
23006430,0.1374,-0.6878,-0.1105,-0.7042,0.0256,0.0003,-0.1013,0
23006596,0.1374,-0.6878,-0.1105,-0.7042,0.0014,-0.0008,-0.1070,0
23006763,0.1374,-0.6878,-0.1105,-0.7042,-0.0086,-0.0099,-0.1150,0
23006930,0.1373,-0.6878,-0.1104,-0.7042,-0.0200,-0.0043,-0.1000,0
23007096,0.1373,-0.6878,-0.1104,-0.7042,0.0219,-0.0003,-0.0985,0
23007263,0.1373,-0.6878,-0.1104,-0.7042,-0.0245,-0.0072,-0.0613,0
23007430,0.1373,-0.6878,-0.1104,-0.7042,0.0077,0.0038,-0.1344,0
23007596,0.1373,-0.6878,-0.1104,-0.7042,-0.0032,0.0003,-0.1068,0
23007763,0.1373,-0.6878,-0.1104,-0.7042,0.0019,-0.0062,-0.0975,0
23007930,0.1373,-0.6878,-0.1104,-0.7042,0.0101,-0.0020,-0.1201,0
23008096,0.1373,-0.6878,-0.1104,-0.7042,-0.0044,-0.0144,-0.0954,0
23008263,0.1373,-0.6878,-0.1103,-0.7042,-0.0157,-0.0082,-0.1007,0
23008430,0.1373,-0.6878,-0.1103,-0.7042,-0.0058,-0.0067,-0.1023,0
23008596,0.1373,-0.6878,-0.1103,-0.7042,-0.0151,-0.0092,-0.0962,0
23008763,0.1373,-0.6878,-0.1103,-0.7042,-0.0050,0.0015,-0.0904,0
23008930,0.1373,-0.6878,-0.1103,-0.7042,-0.0147,-0.0094,-0.1168,0
23009096,0.1372,-0.6878,-0.1103,-0.7042,0.0052,-0.0144,-0.1029,0
23009263,0.1372,-0.6878,-0.1103,-0.7042,-0.0039,0.0023,-0.0919,0
23009430,0.1372,-0.6878,-0.1102,-0.7042,0.0133,0.0109,-0.1080,0
23009596,0.1371,-0.6878,-0.1102,-0.7042,0.0043,-0.0082,-0.1011,0
23009763,0.1371,-0.6878,-0.1102,-0.7043,-0.0087,-0.0094,-0.0977,0
23009930,0.1371,-0.6878,-0.1101,-0.7042,0.0166,0.0018,-0.0945,0
23010096,0.1371,-0.6878,-0.1101,-0.7043,-0.0228,-0.0089,-0.0945,0
23010263,0.1371,-0.6878,-0.1101,-0.7042,0.0316,0.0117,-0.1099,0
23010430,0.1371,-0.6878,-0.1101,-0.7043,-0.0248,-0.0027,-0.1070,0
23010596,0.1371,-0.6878,-0.1101,-0.7042,0.0050,0.0098,-0.1221,0
23010763,0.1371,-0.6878,-0.1101,-0.7042,-0.0418,-0.0245,-0.0977,0
23010930,0.1371,-0.6878,-0.1101,-0.7043,0.0049,-0.0004,-0.1054,0
23011096,0.1371,-0.6878,-0.1101,-0.7043,-0.0397,-0.0125,-0.1046,0
23011263,0.1370,-0.6878,-0.1101,-0.7043,0.0179,0.0034,-0.1084,0
23011430,0.1370,-0.6878,-0.1101,-0.7043,-0.0017,-0.0100,-0.1001,0
23011596,0.1371,-0.6878,-0.1101,-0.7043,-0.0002,0.0013,-0.0923,0
23011763,0.1370,-0.6878,-0.1100,-0.7043,-0.0187,-0.0209,-0.1091,0
23011930,0.1370,-0.6878,-0.1100,-0.7043,0.0296,-0.0077,-0.1027,0
23012096,0.1370,-0.6878,-0.1100,-0.7043,-0.0360,-0.0231,-0.0943,0
23012263,0.1370,-0.6878,-0.1100,-0.7043,-0.0026,-0.0032,-0.1080,0
23012430,0.1370,-0.6878,-0.1100,-0.7043,-0.0170,0.0021,-0.1050,0
23012596,0.1370,-0.6878,-0.1100,-0.7043,0.0042,-0.0022,-0.0976,0
23012763,0.1370,-0.6879,-0.1100,-0.7043,-0.0117,-0.0077,-0.1105,0
23012930,0.1370,-0.6878,-0.1100,-0.7043,-0.0012,-0.0072,-0.1086,0
23013096,0.1370,-0.6879,-0.1100,-0.7043,0.0031,-0.0176,-0.1048,0
23013263,0.1370,-0.6879,-0.1100,-0.7043,0.0015,-0.0115,-0.1152,0
23013430,0.1370,-0.6879,-0.1099,-0.7043,0.0028,0.0002,-0.0973,0
23013596,0.1370,-0.6879,-0.1099,-0.7043,-0.0101,-0.0075,-0.0954,0
23013763,0.1370,-0.6879,-0.1099,-0.7043,0.0077,-0.0109,-0.1052,0
23013930,0.1370,-0.6879,-0.1099,-0.7043,-0.0067,-0.0122,-0.1253,0
23014096,0.1370,-0.6879,-0.1099,-0.7043,0.0241,0.0037,-0.0965,0
23014263,0.1369,-0.6879,-0.1099,-0.7043,-0.0125,-0.0005,-0.0991,0
23014430,0.1369,-0.6879,-0.1099,-0.7043,-0.0088,0.0005,-0.0869,0
23014596,0.1369,-0.6879,-0.1099,-0.7043,0.0019,-0.0113,-0.1047,0
23014763,0.1369,-0.6879,-0.1098,-0.7043,0.0070,0.0074,-0.1005,0
23014930,0.1369,-0.6879,-0.1098,-0.7043,-0.0054,0.0023,-0.1141,0
23015096,0.1368,-0.6879,-0.1098,-0.7043,0.0151,0.0159,-0.1130,0
23015263,0.1368,-0.6879,-0.1098,-0.7043,-0.0115,-0.0165,-0.0908,0
23015430,0.1368,-0.6879,-0.1098,-0.7043,0.0014,-0.0156,-0.1124,0
23015596,0.1368,-0.6879,-0.1098,-0.7043,-0.0179,0.0035,-0.1095,0
23015763,0.1368,-0.6879,-0.1098,-0.7043,0.0199,-0.0113,-0.0765,0
23015930,0.1368,-0.6879,-0.1097,-0.7043,-0.0318,-0.0241,-0.1027,0
23016096,0.1367,-0.6879,-0.1099,-0.7043,0.0238,0.0107,-0.1527,0
23016263,0.1367,-0.6879,-0.1099,-0.7043,-0.0332,-0.0270,-0.0898,0
23016430,0.1367,-0.6879,-0.1098,-0.7043,0.0509,0.0041,-0.1038,0
23016596,0.1367,-0.6879,-0.1098,-0.7043,-0.0774,-0.0253,-0.0768,0
23016763,0.1367,-0.6879,-0.1098,-0.7043,0.0649,0.0108,-0.1257,0
23016930,0.1367,-0.6879,-0.1098,-0.7043,-0.0513,-0.0165,-0.0828,0
23017096,0.1367,-0.6879,-0.1098,-0.7043,0.0813,0.0253,-0.1063,0
23017263,0.1367,-0.6879,-0.1098,-0.7043,-0.0700,-0.0418,-0.0961,0
23017430,0.1367,-0.6879,-0.1098,-0.7043,0.0460,0.0081,-0.0993,0
23017596,0.1367,-0.6879,-0.1098,-0.7043,-0.0329,-0.0274,-0.1221,0
23017763,0.1367,-0.6879,-0.1098,-0.7043,0.0556,0.0192,-0.1180,0
23017930,0.1367,-0.6879,-0.1098,-0.7043,-0.0500,-0.0112,-0.1035,0
23018096,0.1367,-0.6879,-0.1098,-0.7043,0.0811,0.0227,-0.1386,0
23018263,0.1367,-0.6879,-0.1098,-0.7043,-0.0950,-0.0317,-0.0795,0
23018430,0.1367,-0.6879,-0.1098,-0.7043,0.0898,0.0138,-0.0653,0
23018597,0.1367,-0.6879,-0.1098,-0.7043,-0.0871,-0.0274,-0.1074,0
23018763,0.1366,-0.6879,-0.1097,-0.7043,0.0717,0.0159,-0.1450,0
23018930,0.1366,-0.6880,-0.1097,-0.7043,-0.0667,-0.0260,-0.1091,0
23019097,0.1366,-0.6879,-0.1097,-0.7043,0.0543,0.0155,-0.0949,0
23019263,0.1366,-0.6880,-0.1097,-0.7043,-0.0457,-0.0217,-0.0996,0
23019430,0.1366,-0.6879,-0.1097,-0.7043,0.0431,-0.0043,-0.0841,0
23019597,0.1366,-0.6879,-0.1097,-0.7043,-0.0484,-0.0439,-0.1122,0
23019763,0.1366,-0.6879,-0.1097,-0.7044,0.0453,0.0155,-0.1257,0
23019930,0.1366,-0.6879,-0.1097,-0.7043,-0.0398,0.0183,-0.0923,0
23020097,0.1366,-0.6879,-0.1097,-0.7044,0.0478,0.0003,-0.1055,0
23020263,0.1366,-0.6880,-0.1097,-0.7043,-0.0316,-0.0240,-0.0879,0
23020430,0.1366,-0.6879,-0.1096,-0.7044,0.0170,-0.0004,-0.1134,0
23020597,0.1365,-0.6880,-0.1096,-0.7043,-0.0198,-0.0060,-0.0893,0
23020763,0.1365,-0.6879,-0.1096,-0.7044,-0.0029,0.0061,-0.1141,0
23020930,0.1365,-0.6880,-0.1096,-0.7043,0.0042,-0.0013,-0.1026,0
23021097,0.1365,-0.6880,-0.1096,-0.7043,0.0001,-0.0012,-0.0652,0
23021263,0.1365,-0.6880,-0.1096,-0.7043,-0.0483,-0.0137,-0.1148,0
23021430,0.1365,-0.6879,-0.1096,-0.7043,0.0631,0.0212,-0.1320,0
23021597,0.1365,-0.6880,-0.1095,-0.7043,-0.0626,-0.0362,-0.0633,0
23021763,0.1365,-0.6879,-0.1096,-0.7043,0.0595,0.0091,-0.1224,0
23021930,0.1365,-0.6880,-0.1096,-0.7043,-0.0576,-0.0210,-0.0815,0
23022097,0.1365,-0.6880,-0.1096,-0.7043,0.0424,0.0233,-0.1025,0
23022263,0.1365,-0.6880,-0.1095,-0.7043,-0.0542,-0.0294,-0.0756,0
23022430,0.1365,-0.6879,-0.1095,-0.7044,0.0509,0.0010,-0.1142,0
23022597,0.1365,-0.6880,-0.1095,-0.7043,-0.0246,-0.0119,-0.1069,0
23022763,0.1365,-0.6879,-0.1095,-0.7044,0.0246,0.0182,-0.1029,0
23022930,0.1365,-0.6880,-0.1095,-0.7043,-0.0113,-0.0087,-0.0950,0
23023097,0.1365,-0.6880,-0.1095,-0.7043,0.0100,-0.0029,-0.1104,0
23023263,0.1365,-0.6880,-0.1095,-0.7043,-0.0300,-0.0165,-0.0963,0
23023430,0.1365,-0.6879,-0.1095,-0.7044,0.0493,0.0257,-0.1002,0
23023597,0.1365,-0.6880,-0.1095,-0.7043,-0.0309,0.0112,-0.0946,0
23023763,0.1365,-0.6879,-0.1095,-0.7044,0.0373,0.0137,-0.1311,0
23023930,0.1365,-0.6880,-0.1095,-0.7043,-0.0432,-0.0351,-0.1090,0
23024097,0.1365,-0.6879,-0.1095,-0.7044,0.0201,-0.0040,-0.0322,0
23024263,0.1365,-0.6879,-0.1095,-0.7044,-0.0003,-0.0093,-0.1742,0
23024430,0.1365,-0.6879,-0.1095,-0.7044,-0.0318,-0.0147,-0.0694,0
23024597,0.1365,-0.6879,-0.1095,-0.7044,0.0287,-0.0265,-0.1357,0
23024763,0.1365,-0.6880,-0.1095,-0.7043,-0.0052,-0.0185,-0.0768,0
23024930,0.1365,-0.6879,-0.1095,-0.7044,0.0070,-0.0077,-0.1424,0
23025097,0.1365,-0.6880,-0.1095,-0.7043,0.0043,0.0127,-0.1133,0
23025263,0.1365,-0.6879,-0.1095,-0.7044,0.0239,0.0308,-0.1022,0
23025430,0.1365,-0.6879,-0.1095,-0.7044,-0.0135,-0.0005,-0.1156,0
23025597,0.1365,-0.6879,-0.1095,-0.7044,0.0064,-0.0136,-0.1089,0
23025763,0.1365,-0.6879,-0.1095,-0.7044,-0.0002,0.0048,-0.1014,0
23025930,0.1365,-0.6879,-0.1095,-0.7044,0.0304,-0.0064,-0.1225,0
23026097,0.1365,-0.6880,-0.1095,-0.7043,-0.0120,0.0014,-0.0897,0
23026263,0.1366,-0.6879,-0.1095,-0.7044,0.0083,-0.0108,-0.1071,0
23026430,0.1366,-0.6880,-0.1095,-0.7043,-0.0117,-0.0134,-0.1057,0
23026597,0.1366,-0.6879,-0.1095,-0.7044,-0.0070,-0.0173,-0.0995,0
23026763,0.1366,-0.6880,-0.1095,-0.7043,-0.0028,-0.0288,-0.0909,0
23026930,0.1366,-0.6879,-0.1095,-0.7044,-0.0199,-0.0291,-0.0845,0
23027097,0.1365,-0.6880,-0.1095,-0.7043,0.0195,0.0233,-0.1225,0
23027263,0.1365,-0.6879,-0.1095,-0.7044,-0.0276,0.0066,-0.0763,0
23027430,0.1365,-0.6879,-0.1095,-0.7044,0.0335,-0.0118,-0.1217,0
23027597,0.1365,-0.6879,-0.1095,-0.7044,-0.0215,-0.0363,-0.1004,0
23027763,0.1365,-0.6880,-0.1094,-0.7044,0.0237,-0.0132,-0.1081,0
23027930,0.1365,-0.6879,-0.1094,-0.7044,0.0102,0.0222,-0.1031,0
23028097,0.1365,-0.6880,-0.1094,-0.7044,-0.0001,0.0074,-0.0789,0
23028263,0.1365,-0.6879,-0.1094,-0.7044,-0.0127,-0.0085,-0.1099,0
23028430,0.1365,-0.6879,-0.1094,-0.7044,0.0068,-0.0299,-0.1118,0
23028597,0.1364,-0.6879,-0.1094,-0.7044,-0.0151,-0.0328,-0.1034,0
23028763,0.1365,-0.6879,-0.1094,-0.7044,0.0118,0.0039,-0.1144,0
23028930,0.1365,-0.6879,-0.1094,-0.7044,-0.0095,-0.0032,-0.1080,0
23029097,0.1364,-0.6879,-0.1094,-0.7044,-0.0078,-0.0112,-0.1159,0
23029263,0.1364,-0.6879,-0.1094,-0.7044,0.0096,-0.0025,-0.1049,0
23029430,0.1364,-0.6879,-0.1094,-0.7044,-0.0187,-0.0131,-0.0981,0
23029597,0.1364,-0.6879,-0.1094,-0.7044,0.0068,-0.0146,-0.1258,0
23029763,0.1364,-0.6879,-0.1094,-0.7044,-0.0089,-0.0054,-0.0658,0
23029930,0.1364,-0.6879,-0.1094,-0.7044,-0.0128,-0.0132,-0.1245,0
23030097,0.1364,-0.6879,-0.1094,-0.7044,0.0191,0.0006,-0.1199,0
23030263,0.1364,-0.6879,-0.1094,-0.7044,-0.0268,-0.0309,-0.0601,0
23030430,0.1364,-0.6879,-0.1094,-0.7044,0.0148,0.0050,-0.1312,0
23030597,0.1363,-0.6879,-0.1094,-0.7044,-0.0189,-0.0216,-0.0981,0
23030763,0.1363,-0.6879,-0.1094,-0.7044,0.0234,0.0050,-0.1123,0
23030930,0.1363,-0.6879,-0.1094,-0.7044,-0.0141,-0.0065,-0.0960,0
23031097,0.1363,-0.6879,-0.1094,-0.7044,0.0224,0.0053,-0.1046,0
23031263,0.1363,-0.6879,-0.1094,-0.7044,-0.0088,0.0017,-0.1084,0
23031430,0.1363,-0.6879,-0.1094,-0.7044,0.0193,0.0046,-0.1061,0
23031597,0.1363,-0.6879,-0.1093,-0.7044,-0.0182,-0.0154,-0.0981,0
23031763,0.1363,-0.6879,-0.1094,-0.7044,0.0121,-0.0060,-0.1125,0
23031930,0.1363,-0.6879,-0.1093,-0.7044,-0.0462,-0.0215,-0.1075,0
23032097,0.1363,-0.6879,-0.1093,-0.7044,0.0405,-0.0002,-0.0995,0
23032263,0.1363,-0.6879,-0.1093,-0.7044,-0.0270,-0.0299,-0.0810,0
23032430,0.1363,-0.6879,-0.1093,-0.7044,0.0421,0.0077,-0.1182,0
23032597,0.1362,-0.6879,-0.1093,-0.7044,-0.0300,-0.0229,-0.0998,0
23032763,0.1362,-0.6879,-0.1093,-0.7045,-0.0023,-0.0020,-0.1033,0
23032930,0.1362,-0.6879,-0.1093,-0.7045,-0.0056,-0.0045,-0.0983,0
23033097,0.1363,-0.6879,-0.1093,-0.7045,0.0228,-0.0013,-0.1128,0
23033263,0.1362,-0.6879,-0.1093,-0.7045,-0.0256,-0.0244,-0.0749,0
23033430,0.1363,-0.6879,-0.1093,-0.7045,0.0242,0.0177,-0.1252,0
23033597,0.1363,-0.6879,-0.1093,-0.7044,-0.0250,-0.0155,-0.1248,0
23033763,0.1363,-0.6879,-0.1093,-0.7045,0.0155,-0.0110,-0.0911,0
23033930,0.1362,-0.6879,-0.1092,-0.7045,-0.0027,-0.0159,-0.1050,0
23034097,0.1362,-0.6879,-0.1092,-0.7045,0.0068,0.0046,-0.1119,0
23034263,0.1362,-0.6879,-0.1092,-0.7045,-0.0182,-0.0185,-0.1092,0
23034430,0.1362,-0.6879,-0.1092,-0.7045,-0.0053,-0.0159,-0.0920,0
23034597,0.1362,-0.6879,-0.1092,-0.7045,-0.0005,-0.0242,-0.1066,0
23034763,0.1362,-0.6879,-0.1092,-0.7045,0.0191,0.0085,-0.0784,0
23034930,0.1362,-0.6879,-0.1092,-0.7045,-0.0194,-0.0044,-0.0935,0
23035097,0.1362,-0.6879,-0.1092,-0.7045,0.0174,0.0100,-0.1154,0
23035264,0.1362,-0.6879,-0.1092,-0.7045,-0.0222,-0.0235,-0.0911,0
23035430,0.1362,-0.6879,-0.1092,-0.7045,-0.0088,-0.0067,-0.1124,0
23035597,0.1362,-0.6879,-0.1092,-0.7045,0.0014,0.0059,-0.0919,0
23035764,0.1361,-0.6879,-0.1091,-0.7045,-0.0023,0.0092,-0.0980,0
23035930,0.1361,-0.6879,-0.1091,-0.7045,0.0153,0.0030,-0.0972,0
23036097,0.1361,-0.6879,-0.1091,-0.7045,-0.0204,-0.0244,-0.0919,0
23036264,0.1361,-0.6879,-0.1091,-0.7045,0.0008,-0.0065,-0.1010,0
23036430,0.1361,-0.6879,-0.1091,-0.7045,-0.0003,-0.0078,-0.0985,0
23036597,0.1361,-0.6879,-0.1091,-0.7045,0.0190,-0.0042,-0.1044,0
23036764,0.1361,-0.6879,-0.1091,-0.7045,-0.0041,-0.0057,-0.0982,0
23036930,0.1361,-0.6879,-0.1091,-0.7045,0.0188,-0.0056,-0.1021,0
23037097,0.1361,-0.6879,-0.1091,-0.7045,0.0134,-0.0083,-0.1009,0
23037264,0.1361,-0.6879,-0.1091,-0.7045,0.0047,-0.0031,-0.1036,0
23037430,0.1361,-0.6879,-0.1091,-0.7045,-0.0064,-0.0030,-0.1078,0
23037597,0.1361,-0.6879,-0.1091,-0.7045,-0.0018,-0.0029,-0.0942,0
23037764,0.1361,-0.6879,-0.1091,-0.7045,-0.0088,-0.0159,-0.1016,0
23037930,0.1361,-0.6879,-0.1091,-0.7045,0.0016,-0.0164,-0.0985,0
23038097,0.1361,-0.6879,-0.1091,-0.7045,-0.0097,-0.0274,-0.0972,0
23038264,0.1362,-0.6879,-0.1091,-0.7045,-0.0070,-0.0041,-0.0998,0
23038430,0.1362,-0.6879,-0.1091,-0.7045,-0.0203,0.0021,-0.0870,0
23038597,0.1361,-0.6879,-0.1091,-0.7045,-0.0115,0.0011,-0.1294,0
23038764,0.1361,-0.6879,-0.1091,-0.7045,-0.0147,0.0019,-0.1055,0
23038930,0.1361,-0.6879,-0.1091,-0.7045,0.0047,-0.0023,-0.0952,0
23039097,0.1361,-0.6879,-0.1091,-0.7045,0.0132,-0.0028,-0.0984,0
23039264,0.1361,-0.6879,-0.1091,-0.7045,-0.0187,-0.0060,-0.1027,0
23039430,0.1361,-0.6879,-0.1091,-0.7045,0.0104,0.0050,-0.0899,0
23039597,0.1361,-0.6879,-0.1091,-0.7045,-0.0151,-0.0126,-0.0921,0
23039764,0.1361,-0.6879,-0.1091,-0.7045,0.0173,0.0106,-0.0984,0
23039930,0.1361,-0.6879,-0.1091,-0.7045,-0.0164,-0.0035,-0.1029,0
23040097,0.1361,-0.6879,-0.1091,-0.7045,0.0121,0.0097,-0.1104,0
23040264,0.1361,-0.6879,-0.1091,-0.7045,-0.0098,-0.0201,-0.0870,0
23040430,0.1361,-0.6879,-0.1091,-0.7045,0.0144,0.0132,-0.1084,0
23040597,0.1361,-0.6879,-0.1091,-0.7045,0.0090,0.0015,-0.1056,0
23040764,0.1361,-0.6879,-0.1091,-0.7045,-0.0106,-0.0173,-0.1009,0
23040930,0.1361,-0.6879,-0.1091,-0.7045,-0.0272,-0.0190,-0.1162,0
23041097,0.1360,-0.6879,-0.1091,-0.7045,0.0056,0.0084,-0.1109,0
23041264,0.1360,-0.6879,-0.1091,-0.7045,-0.0415,-0.0152,-0.0958,0
23041430,0.1360,-0.6879,-0.1091,-0.7045,0.0087,0.0078,-0.0974,0
23041597,0.1360,-0.6879,-0.1091,-0.7045,-0.0055,-0.0187,-0.0861,0
23041764,0.1360,-0.6879,-0.1091,-0.7045,0.0022,-0.0079,-0.0931,0
23041930,0.1361,-0.6879,-0.1091,-0.7045,-0.0125,0.0003,-0.0940,0
23042097,0.1361,-0.6879,-0.1091,-0.7045,0.0186,-0.0059,-0.1066,0
23042264,0.1361,-0.6879,-0.1091,-0.7045,-0.0036,-0.0249,-0.1023,0
23042430,0.1361,-0.6879,-0.1091,-0.7045,0.0078,-0.0076,-0.1080,0
23042597,0.1361,-0.6879,-0.1091,-0.7045,-0.0215,-0.0038,-0.0970,0
23042764,0.1361,-0.6879,-0.1091,-0.7045,0.0149,0.0057,-0.1055,0
23042930,0.1361,-0.6879,-0.1091,-0.7045,-0.0512,0.0260,-0.1215,0
23043097,0.1361,-0.6879,-0.1091,-0.7045,-0.0091,-0.0197,-0.0824,0
23043264,0.1361,-0.6879,-0.1091,-0.7045,-0.0109,0.0216,-0.0829,0
23043430,0.1361,-0.6879,-0.1091,-0.7045,-0.0007,0.0037,-0.1183,0
23043597,0.1361,-0.6879,-0.1091,-0.7045,-0.0096,-0.0254,-0.1139,0
23043764,0.1361,-0.6879,-0.1091,-0.7045,-0.0125,-0.0003,-0.0922,0
23043930,0.1361,-0.6879,-0.1091,-0.7045,-0.0076,0.0005,-0.1033,0
23044097,0.1361,-0.6879,-0.1091,-0.7045,-0.0076,0.0085,-0.1170,0
23044264,0.1361,-0.6879,-0.1091,-0.7045,0.0058,0.0044,-0.1046,0
23044430,0.1361,-0.6879,-0.1091,-0.7045,-0.0141,-0.0144,-0.1102,0
23044597,0.1361,-0.6879,-0.1091,-0.7045,-0.0087,-0.0085,-0.0895,0
23044764,0.1361,-0.6879,-0.1091,-0.7045,-0.0104,-0.0272,-0.0972,0
23044930,0.1361,-0.6879,-0.1091,-0.7045,-0.0279,-0.0382,-0.1082,0
23045097,0.1360,-0.6879,-0.1091,-0.7045,-0.0039,-0.0009,-0.0971,0
23045264,0.1360,-0.6879,-0.1091,-0.7045,-0.0156,0.0059,-0.1112,0
23045430,0.1360,-0.6879,-0.1091,-0.7045,0.0029,0.0080,-0.1088,0
23045597,0.1360,-0.6879,-0.1091,-0.7045,-0.0153,-0.0205,-0.0966,0
23045764,0.1360,-0.6879,-0.1090,-0.7045,0.0007,-0.0287,-0.1016,0
23045930,0.1360,-0.6879,-0.1090,-0.7046,0.0075,-0.0074,-0.0989,0
23046097,0.1360,-0.6879,-0.1090,-0.7046,-0.0039,0.0034,-0.1071,0
23046264,0.1360,-0.6879,-0.1090,-0.7046,-0.0193,-0.0148,-0.1084,0
23046430,0.1360,-0.6879,-0.1090,-0.7045,-0.0084,-0.0164,-0.0901,0
23046597,0.1360,-0.6879,-0.1090,-0.7046,-0.0021,-0.0089,-0.1013,0
23046764,0.1360,-0.6879,-0.1090,-0.7046,-0.0305,0.0031,-0.0945,0
23046930,0.1360,-0.6879,-0.1090,-0.7046,0.0140,0.0074,-0.0924,0
23047097,0.1360,-0.6879,-0.1090,-0.7046,-0.0187,-0.0220,-0.1046,0
23047264,0.1360,-0.6879,-0.1090,-0.7046,-0.0151,-0.0158,-0.0975,0
23047430,0.1360,-0.6879,-0.1090,-0.7046,-0.0082,-0.0141,-0.1057,0
23047597,0.1360,-0.6879,-0.1090,-0.7046,-0.0108,-0.0072,-0.1108,0
23047764,0.1360,-0.6879,-0.1090,-0.7046,-0.0055,-0.0092,-0.1038,0
23047930,0.1360,-0.6879,-0.1090,-0.7046,-0.0013,-0.0066,-0.0932,0
23048097,0.1360,-0.6879,-0.1090,-0.7046,-0.0212,-0.0149,-0.1075,0
23048264,0.1360,-0.6879,-0.1090,-0.7046,-0.0104,-0.0031,-0.0947,0
23048430,0.1360,-0.6879,-0.1090,-0.7046,-0.0007,-0.0101,-0.0960,0
23048597,0.1360,-0.6879,-0.1090,-0.7046,0.0017,-0.0141,-0.0919,0
23048764,0.1360,-0.6879,-0.1090,-0.7046,-0.0335,-0.0127,-0.0991,0
23048930,0.1360,-0.6879,-0.1090,-0.7046,0.0003,-0.0050,-0.1155,0
23049097,0.1360,-0.6879,-0.1090,-0.7046,-0.0078,-0.0157,-0.1027,0
23049264,0.1360,-0.6879,-0.1090,-0.7046,0.0321,0.0165,-0.1022,0
23049430,0.1360,-0.6878,-0.1090,-0.7046,-0.0283,0.0008,-0.1016,0
23049597,0.1360,-0.6878,-0.1090,-0.7046,0.0115,-0.0112,-0.1283,0
23049764,0.1360,-0.6879,-0.1090,-0.7046,-0.0164,-0.0257,-0.1071,0
23049930,0.1360,-0.6878,-0.1090,-0.7046,0.0007,-0.0041,-0.1146,0
23050097,0.1359,-0.6878,-0.1090,-0.7046,-0.0127,-0.0074,-0.1082,0
23050264,0.1359,-0.6878,-0.1090,-0.7046,0.0066,0.0088,-0.0867,0
23050430,0.1359,-0.6879,-0.1090,-0.7046,-0.0187,-0.0241,-0.1060,0
23050597,0.1359,-0.6878,-0.1090,-0.7046,-0.0050,-0.0019,-0.0790,0
23050764,0.1359,-0.6878,-0.1090,-0.7046,-0.0100,-0.0073,-0.1179,0
23050930,0.1359,-0.6878,-0.1090,-0.7047,-0.0148,0.0211,-0.1081,0
23051097,0.1359,-0.6878,-0.1089,-0.7047,-0.0169,-0.0308,-0.1116,0
23051264,0.1359,-0.6878,-0.1089,-0.7047,-0.0053,-0.0303,-0.0942,0
23051430,0.1359,-0.6878,-0.1089,-0.7047,-0.0115,-0.0136,-0.0896,0
23051597,0.1359,-0.6878,-0.1089,-0.7047,-0.0025,-0.0098,-0.1059,0
23051764,0.1359,-0.6878,-0.1089,-0.7047,-0.0226,-0.0240,-0.0963,0
23051931,0.1359,-0.6878,-0.1089,-0.7047,-0.0152,-0.0002,-0.1073,0
23052097,0.1359,-0.6878,-0.1089,-0.7047,-0.0101,-0.0061,-0.1126,0
23052264,0.1358,-0.6878,-0.1089,-0.7047,-0.0131,0.0070,-0.1065,0
23052431,0.1358,-0.6878,-0.1089,-0.7047,-0.0000,-0.0172,-0.1066,0
23052597,0.1358,-0.6878,-0.1089,-0.7047,-0.0069,-0.0085,-0.0952,0
23052764,0.1358,-0.6878,-0.1089,-0.7047,-0.0100,-0.0101,-0.1137,0
23052931,0.1358,-0.6878,-0.1089,-0.7047,-0.0251,-0.0068,-0.1028,0
23053097,0.1358,-0.6878,-0.1089,-0.7047,-0.0111,-0.0102,-0.1210,0
23053264,0.1358,-0.6878,-0.1089,-0.7047,-0.0078,-0.0074,-0.0768,0
23053431,0.1358,-0.6878,-0.1089,-0.7047,-0.0074,-0.0123,-0.0828,0
23053597,0.1358,-0.6878,-0.1089,-0.7047,-0.0376,0.0094,-0.1323,0
23053764,0.1358,-0.6878,-0.1089,-0.7047,0.0177,0.0076,-0.1042,0
23053931,0.1358,-0.6878,-0.1089,-0.7047,-0.0164,-0.0071,-0.0833,0
23054097,0.1358,-0.6878,-0.1089,-0.7047,0.0071,-0.0088,-0.0992,0
23054264,0.1358,-0.6878,-0.1089,-0.7047,-0.0178,-0.0028,-0.1159,0
23054431,0.1358,-0.6878,-0.1089,-0.7047,0.0030,0.0052,-0.0994,0
23054597,0.1358,-0.6878,-0.1089,-0.7047,-0.0241,0.0097,-0.1045,0
23054764,0.1358,-0.6878,-0.1089,-0.7047,-0.0108,-0.0123,-0.1128,0
23054931,0.1358,-0.6878,-0.1089,-0.7047,-0.0019,0.0067,-0.1088,0
23055097,0.1358,-0.6878,-0.1089,-0.7047,-0.0051,0.0147,-0.1011,0
23055264,0.1358,-0.6878,-0.1089,-0.7047,-0.0074,-0.0017,-0.0998,0
23055431,0.1358,-0.6878,-0.1089,-0.7047,-0.0183,0.0003,-0.1185,0
23055597,0.1358,-0.6878,-0.1089,-0.7047,-0.0299,0.0097,-0.1192,0
23055764,0.1358,-0.6878,-0.1089,-0.7047,-0.0006,-0.0125,-0.0899,0
23055931,0.1358,-0.6878,-0.1089,-0.7047,-0.0350,-0.0461,-0.0979,0
23056097,0.1359,-0.6880,-0.1089,-0.7045,-0.0060,-0.0116,-0.0940,0
23056264,0.1359,-0.6880,-0.1089,-0.7046,-0.0181,0.0041,-0.1127,0
23056431,0.1359,-0.6880,-0.1089,-0.7045,0.0254,0.0080,-0.1026,0
23056597,0.1359,-0.6880,-0.1089,-0.7046,-0.0334,-0.0357,-0.0958,0
23056764,0.1359,-0.6880,-0.1089,-0.7045,0.0024,-0.0310,-0.1191,0
23056931,0.1359,-0.6880,-0.1089,-0.7046,-0.0311,-0.0182,-0.1093,0
23057097,0.1359,-0.6880,-0.1089,-0.7045,0.0223,0.0027,-0.1048,0
23057264,0.1359,-0.6880,-0.1089,-0.7045,-0.0407,-0.0023,-0.0826,0
23057431,0.1359,-0.6880,-0.1089,-0.7045,0.0282,-0.0484,-0.1025,0
23057597,0.1359,-0.6880,-0.1089,-0.7046,-0.0392,-0.0100,-0.1290,0
23057764,0.1359,-0.6880,-0.1089,-0.7046,-0.0003,0.0026,-0.1215,0
23057931,0.1358,-0.6880,-0.1089,-0.7046,-0.0226,-0.0475,-0.0553,0
23058097,0.1358,-0.6880,-0.1088,-0.7046,0.0122,-0.0058,-0.0915,0
23058264,0.1358,-0.6880,-0.1088,-0.7046,-0.0072,-0.0060,-0.1126,0
23058431,0.1358,-0.6879,-0.1088,-0.7046,0.0149,-0.0024,-0.1060,0
23058597,0.1358,-0.6880,-0.1088,-0.7046,-0.0363,-0.0061,-0.1097,0
23058764,0.1358,-0.6879,-0.1088,-0.7046,0.0039,-0.0068,-0.1095,0
23058931,0.1358,-0.6879,-0.1089,-0.7046,-0.0242,-0.0183,-0.1168,0
23059097,0.1358,-0.6879,-0.1088,-0.7046,0.0134,-0.0134,-0.1017,0
23059264,0.1358,-0.6879,-0.1088,-0.7046,-0.0228,-0.0163,-0.1132,0
23059431,0.1358,-0.6879,-0.1088,-0.7046,0.0123,0.0049,-0.1137,0
23059597,0.1358,-0.6880,-0.1088,-0.7046,-0.0064,-0.0068,-0.0944,0
23059764,0.1358,-0.6879,-0.1088,-0.7046,0.0096,-0.0056,-0.1096,0
23059931,0.1358,-0.6880,-0.1089,-0.7046,-0.0131,-0.0209,-0.1022,0
23060097,0.1358,-0.6879,-0.1089,-0.7046,-0.0040,-0.0055,-0.0763,0
23060264,0.1358,-0.6879,-0.1089,-0.7046,-0.0021,-0.0086,-0.1231,0
23060431,0.1358,-0.6879,-0.1089,-0.7046,-0.0149,-0.0259,-0.0977,0
23060597,0.1358,-0.6879,-0.1089,-0.7046,0.0019,-0.0110,-0.1000,0
23060764,0.1358,-0.6879,-0.1089,-0.7046,-0.0065,-0.0056,-0.1078,0
23060931,0.1358,-0.6879,-0.1089,-0.7046,-0.0124,-0.0097,-0.1077,0
23061097,0.1358,-0.6879,-0.1089,-0.7046,-0.0097,-0.0115,-0.1025,0
23061264,0.1358,-0.6879,-0.1089,-0.7046,-0.0027,-0.0181,-0.1064,0
23061431,0.1358,-0.6879,-0.1089,-0.7046,0.0114,-0.0088,-0.0990,0
23061597,0.1358,-0.6880,-0.1088,-0.7046,-0.0285,-0.0027,-0.1032,0
23061764,0.1358,-0.6879,-0.1088,-0.7046,-0.0142,0.0047,-0.0992,0
23061931,0.1358,-0.6880,-0.1088,-0.7046,0.0147,0.0047,-0.1134,0
23062097,0.1358,-0.6880,-0.1088,-0.7046,-0.0131,-0.0189,-0.0963,0
23062264,0.1358,-0.6880,-0.1088,-0.7046,0.0053,-0.0165,-0.1130,0
23062431,0.1358,-0.6880,-0.1088,-0.7046,-0.0150,-0.0134,-0.0990,0
23062597,0.1358,-0.6879,-0.1088,-0.7046,-0.0057,0.0011,-0.0914,0
23062764,0.1358,-0.6880,-0.1088,-0.7046,-0.0075,-0.0047,-0.0976,0
23062931,0.1358,-0.6880,-0.1088,-0.7046,0.0309,0.0016,-0.1074,0
23063097,0.1358,-0.6880,-0.1087,-0.7046,0.0231,0.0017,-0.1002,0
23063264,0.1358,-0.6880,-0.1087,-0.7046,0.0044,0.0102,-0.1040,0
23063431,0.1358,-0.6880,-0.1087,-0.7046,0.0190,-0.0002,-0.1169,0
23063597,0.1357,-0.6880,-0.1088,-0.7046,0.0072,-0.0104,-0.0918,0
23063764,0.1357,-0.6880,-0.1087,-0.7046,0.0192,0.0095,-0.1269,0
23063931,0.1357,-0.6880,-0.1087,-0.7046,-0.0216,-0.0097,-0.1031,0
23064097,0.1358,-0.6880,-0.1088,-0.7046,0.0113,-0.0022,-0.0915,0
23064264,0.1358,-0.6880,-0.1088,-0.7046,-0.0058,-0.0055,-0.0971,0
23064431,0.1357,-0.6880,-0.1088,-0.7046,0.0049,-0.0019,-0.1086,0
23064597,0.1357,-0.6880,-0.1088,-0.7046,-0.0109,-0.0094,-0.0998,0
23064764,0.1357,-0.6880,-0.1088,-0.7046,0.0044,0.0130,-0.1016,0
23064931,0.1358,-0.6879,-0.1088,-0.7046,-0.0092,-0.0029,-0.0989,0
23065097,0.1357,-0.6879,-0.1088,-0.7046,0.0039,-0.0018,-0.1123,0
23065264,0.1357,-0.6879,-0.1088,-0.7046,-0.0138,-0.0102,-0.0937,0
23065431,0.1357,-0.6880,-0.1087,-0.7046,0.0264,-0.0012,-0.1041,0
23065597,0.1357,-0.6880,-0.1087,-0.7046,-0.0073,-0.0118,-0.1026,0
23065764,0.1357,-0.6880,-0.1087,-0.7046,-0.0164,-0.0133,-0.1076,0
23065931,0.1357,-0.6880,-0.1087,-0.7046,-0.0164,-0.0115,-0.0930,0
23066097,0.1357,-0.6880,-0.1087,-0.7046,0.0004,-0.0156,-0.0925,0
23066264,0.1357,-0.6880,-0.1087,-0.7046,-0.0060,-0.0143,-0.1074,0
23066431,0.1357,-0.6880,-0.1087,-0.7046,0.0071,-0.0127,-0.1001,0
23066597,0.1357,-0.6880,-0.1087,-0.7046,0.0184,0.0178,-0.0931,0
23066764,0.1357,-0.6879,-0.1087,-0.7046,-0.0095,0.0076,-0.1152,0
23066931,0.1357,-0.6879,-0.1087,-0.7046,0.0014,-0.0155,-0.0997,0
23067097,0.1357,-0.6879,-0.1087,-0.7046,0.0133,-0.0013,-0.1045,0
23067264,0.1357,-0.6879,-0.1087,-0.7046,-0.0008,-0.0136,-0.1019,0
23067431,0.1357,-0.6879,-0.1087,-0.7046,-0.0025,0.0030,-0.1104,0
23067597,0.1357,-0.6879,-0.1087,-0.7046,0.0068,-0.0071,-0.1016,0
23067764,0.1357,-0.6879,-0.1087,-0.7046,0.0032,-0.0084,-0.0970,0
23067931,0.1357,-0.6879,-0.1087,-0.7046,0.0035,-0.0032,-0.1044,0
23068097,0.1357,-0.6879,-0.1087,-0.7046,-0.0238,-0.0053,-0.1023,0
23068264,0.1357,-0.6879,-0.1087,-0.7046,-0.0268,-0.0093,-0.1121,0
23068431,0.1357,-0.6879,-0.1087,-0.7046,-0.0066,-0.0199,-0.1117,0
23068598,0.1357,-0.6880,-0.1087,-0.7046,-0.0143,-0.0033,-0.0753,0
23068764,0.1357,-0.6879,-0.1087,-0.7047,-0.0100,-0.0084,-0.1323,0
23068931,0.1357,-0.6880,-0.1087,-0.7046,-0.0045,-0.0064,-0.0724,0
23069098,0.1357,-0.6879,-0.1087,-0.7047,0.0035,0.0013,-0.0894,0
23069264,0.1357,-0.6880,-0.1087,-0.7046,-0.0007,0.0031,-0.1303,0
23069431,0.1357,-0.6879,-0.1087,-0.7046,-0.0249,-0.0080,-0.0965,0
23069598,0.1357,-0.6880,-0.1087,-0.7046,0.0007,0.0007,-0.1193,0
23069764,0.1357,-0.6879,-0.1087,-0.7046,-0.0358,-0.0136,-0.0921,0
23069931,0.1357,-0.6880,-0.1087,-0.7046,0.0021,0.0060,-0.1146,0
23070098,0.1357,-0.6879,-0.1087,-0.7046,-0.0219,-0.0263,-0.1072,0
23070264,0.1357,-0.6880,-0.1087,-0.7046,-0.0065,-0.0019,-0.1006,0
23070431,0.1357,-0.6879,-0.1087,-0.7046,-0.0155,-0.0004,-0.1105,0
23070598,0.1357,-0.6880,-0.1087,-0.7046,-0.0133,-0.0193,-0.0903,0
23070764,0.1357,-0.6879,-0.1087,-0.7046,-0.0093,-0.0038,-0.1190,0
23070931
23071098
23071264
23071431
23071598
23071764
23071931
