DeviceTag: Xsens DOT1,FirmwareVersion: 2.2.1,AppVersion: 2022.2.0,SyncStatus: Unknown (Synced/Un-synced),OutputRate: 60,FilterProfile: Unknown,Measurement Mode: Sensor fusion Mode - Extended (Quaternion),StartTime: 2023-06-15 11:41:08.629,© Movella Technologies B.V. 2005-2023
SampleTimeFine,Quat_W,Quat_X,Quat_Y,Quat_Z,FreeAcc_X,FreeAcc_Y,FreeAcc_Z,Status
8989842,0.9885,0.0001,0.0139,0.1507,0.0079,-0.0209,0.3155,0
8990009,0.9886,0.0009,0.0139,0.1501,0.0224,-0.0480,0.2887,0
8990176,0.9885,0.0014,0.0139,0.1504,0.0217,-0.0545,0.2846,0
8990342,0.9885,0.0019,0.0139,0.1508,0.0159,-0.0522,0.3241,0
8990509,0.9884,0.0025,0.0139,0.1509,0.0253,-0.0699,0.2695,0
8990676,0.9884,0.0030,0.0139,0.1511,0.0273,-0.0669,0.2914,0
8990842,0.9884,0.0036,0.0139,0.1511,0.0424,-0.0900,0.3046,0
8991009,0.9884,0.0042,0.0139,0.1514,0.0249,-0.1219,0.2864,0
8991176,0.9883,0.0048,0.0139,0.1515,0.0435,-0.1229,0.2635,0
8991342,0.9883,0.0054,0.0140,0.1518,0.0293,-0.1443,0.3002,0
8991509,0.9883,0.0060,0.0140,0.1521,0.0311,-0.1297,0.3004,0
8991676,0.9882,0.0067,0.0140,0.1522,0.0361,-0.1376,0.2823,0
8991842,0.9882,0.0073,0.0141,0.1524,0.0458,-0.1771,0.3042,0
8992009,0.9882,0.0079,0.0141,0.1525,0.0563,-0.1675,0.2711,0
8992176,0.9882,0.0086,0.0142,0.1526,0.0596,-0.1884,0.3231,0
8992342,0.9881,0.0092,0.0142,0.1527,0.0539,-0.1977,0.3008,0
8992509,0.9881,0.0099,0.0143,0.1528,0.0454,-0.2337,0.2704,0
8992676,0.9881,0.0105,0.0143,0.1529,0.0251,-0.2363,0.2981,0
8992842,0.9880,0.0112,0.0144,0.1531,0.0603,-0.2381,0.3178,0
8993009,0.9880,0.0118,0.0145,0.1532,0.0842,-0.2569,0.2936,0
8993176,0.9880,0.0125,0.0145,0.1533,0.0831,-0.2559,0.2718,0
8993342,0.9880,0.0131,0.0146,0.1535,0.0587,-0.2923,0.2826,0
8993509,0.9879,0.0138,0.0146,0.1536,0.0692,-0.3112,0.2653,0
8993676,0.9879,0.0145,0.0147,0.1538,0.0861,-0.3142,0.2940,0
8993842,0.9879,0.0151,0.0147,0.1540,0.0899,-0.3075,0.3091,0
8994009,0.9878,0.0158,0.0148,0.1541,0.0795,-0.3435,0.3005,0
8994176,0.9878,0.0165,0.0148,0.1543,0.0854,-0.3642,0.2813,0
8994342,0.9877,0.0171,0.0149,0.1545,0.0800,-0.3484,0.3208,0
8994509,0.9877,0.0178,0.0149,0.1546,0.1013,-0.3762,0.2733,0
8994676,0.9877,0.0184,0.0150,0.1547,0.1061,-0.3951,0.2871,0
8994842,0.9876,0.0191,0.0150,0.1549,0.0974,-0.4172,0.2914,0
8995009,0.9876,0.0198,0.0151,0.1550,0.0863,-0.4164,0.2700,0
8995176,0.9876,0.0204,0.0152,0.1551,0.1082,-0.4266,0.3083,0
8995342,0.9875,0.0211,0.0152,0.1552,0.1251,-0.4363,0.2816,0
8995509,0.9875,0.0218,0.0153,0.1553,0.1215,-0.4612,0.2795,0
8995676,0.9875,0.0224,0.0153,0.1555,0.1161,-0.4854,0.3061,0
8995843,0.9874,0.0231,0.0154,0.1556,0.1282,-0.4885,0.2811,0
8996009,0.9874,0.0237,0.0155,0.1557,0.1091,-0.4802,0.2542,0
8996176,0.9874,0.0244,0.0155,0.1558,0.1282,-0.5107,0.3168,0
8996343,0.9873,0.0251,0.0156,0.1560,0.1246,-0.5240,0.3034,0
8996509,0.9873,0.0257,0.0156,0.1561,0.1352,-0.5313,0.2270,0
8996676,0.9872,0.0264,0.0157,0.1562,0.1431,-0.5590,0.2926,0
8996843,0.9872,0.0271,0.0157,0.1563,0.1368,-0.5647,0.3079,0
8997009,0.9872,0.0277,0.0158,0.1564,0.1331,-0.5810,0.2555,0
8997176,0.9871,0.0284,0.0158,0.1566,0.1554,-0.5816,0.2620,0
8997343,0.9871,0.0290,0.0159,0.1567,0.1386,-0.5901,0.2983,0
8997509,0.9871,0.0297,0.0159,0.1568,0.1408,-0.6169,0.2526,0
8997676,0.9870,0.0303,0.0160,0.1569,0.1697,-0.6302,0.2592,0
8997843,0.9870,0.0310,0.0160,0.1571,0.1416,-0.6389,0.2751,0
8998009,0.9869,0.0316,0.0161,0.1572,0.1632,-0.6363,0.2682,0
8998176,0.9869,0.0323,0.0162,0.1573,0.1800,-0.6500,0.2714,0
8998343,0.9869,0.0329,0.0162,0.1574,0.1693,-0.6676,0.2839,0
8998509,0.9868,0.0336,0.0162,0.1575,0.1539,-0.6824,0.2760,0
8998676,0.9868,0.0342,0.0163,0.1576,0.1920,-0.7122,0.2634,0
8998843,0.9867,0.0348,0.0164,0.1577,0.1898,-0.7174,0.2673,0
8999009,0.9867,0.0355,0.0164,0.1578,0.1648,-0.7169,0.2587,0
8999176,0.9867,0.0361,0.0165,0.1579,0.1705,-0.7475,0.2577,0
8999343,0.9866,0.0367,0.0165,0.1580,0.1749,-0.7553,0.2906,0
8999509,0.9866,0.0374,0.0166,0.1581,0.2116,-0.7520,0.2715,0
8999676,0.9865,0.0380,0.0166,0.1582,0.1971,-0.7749,0.2625,0
8999843,0.9865,0.0386,0.0167,0.1583,0.1897,-0.8056,0.2456,0
9000009,0.9865,0.0392,0.0167,0.1584,0.1940,-0.7971,0.2535,0
9000176,0.9864,0.0398,0.0168,0.1585,0.2115,-0.7996,0.2605,0
9000343,0.9864,0.0405,0.0168,0.1586,0.2120,-0.8099,0.2501,0
9000509,0.9863,0.0411,0.0169,0.1587,0.1864,-0.8422,0.2449,0
9000676,0.9863,0.0417,0.0169,0.1588,0.2043,-0.8436,0.2565,0
9000843,0.9862,0.0423,0.0170,0.1589,0.1917,-0.8572,0.2398,0
9001009,0.9862,0.0429,0.0170,0.1590,0.2239,-0.8769,0.2636,0
9001176,0.9862,0.0435,0.0171,0.1591,0.2150,-0.8850,0.2535,0
9001343,0.9861,0.0441,0.0171,0.1592,0.2167,-0.8882,0.2685,0
9001509,0.9861,0.0447,0.0172,0.1592,0.2069,-0.9055,0.2463,0
9001676,0.9860,0.0453,0.0172,0.1593,0.2301,-0.9193,0.2862,0
9001843,0.9860,0.0458,0.0172,0.1594,0.2440,-0.9308,0.2455,0
9002009,0.9860,0.0464,0.0173,0.1595,0.2357,-0.9410,0.2925,0
9002176,0.9859,0.0470,0.0173,0.1595,0.2311,-0.9529,0.1971,0
9002343,0.9859,0.0476,0.0174,0.1596,0.2478,-0.9451,0.2272,0
9002509,0.9858,0.0481,0.0174,0.1597,0.2428,-0.9395,0.2428,0
9002676,0.9858,0.0487,0.0175,0.1597,0.2084,-1.0125,0.2576,0
9002843,0.9858,0.0492,0.0175,0.1598,0.2598,-1.0074,0.2181,0
9003009,0.9857,0.0498,0.0176,0.1599,0.2822,-0.9835,0.2463,0
9003176,0.9857,0.0503,0.0176,0.1599,0.2685,-1.0076,0.2842,0
9003343,0.9856,0.0509,0.0176,0.1600,0.2442,-1.0553,0.2031,0
9003509,0.9856,0.0514,0.0177,0.1600,0.2509,-1.0246,0.2120,0
9003676,0.9856,0.0519,0.0177,0.1601,0.2462,-1.0536,0.2514,0
9003843,0.9855,0.0525,0.0177,0.1601,0.2610,-1.0701,0.2472,0
9004009,0.9855,0.0530,0.0178,0.1602,0.2964,-1.0578,0.2229,0
9004176,0.9855,0.0535,0.0178,0.1603,0.2789,-1.0941,0.2471,0
9004343,0.9854,0.0540,0.0179,0.1603,0.2545,-1.1049,0.2302,0
9004509,0.9854,0.0545,0.0179,0.1603,0.2751,-1.1119,0.2130,0
9004676,0.9854,0.0550,0.0179,0.1604,0.2958,-1.0869,0.2414,0
9004843,0.9853,0.0555,0.0180,0.1604,0.2778,-1.1022,0.2796,0
9005009,0.9853,0.0560,0.0180,0.1605,0.2534,-1.1409,0.1848,0
9005176,0.9853,0.0564,0.0180,0.1605,0.2817,-1.1350,0.2129,0
9005343,0.9852,0.0569,0.0181,0.1605,0.3002,-1.1389,0.2332,0
9005509,0.9852,0.0574,0.0181,0.1605,0.2765,-1.1544,0.2191,0
9005676,0.9852,0.0578,0.0181,0.1606,0.2808,-1.1570,0.2277,0
9005843,0.9851,0.0583,0.0182,0.1606,0.2911,-1.1757,0.2472,0
9006009,0.9851,0.0587,0.0182,0.1606,0.2787,-1.1850,0.2164,0
9006176,0.9851,0.0591,0.0182,0.1606,0.2956,-1.1847,0.1981,0
9006343,0.9850,0.0596,0.0182,0.1607,0.3192,-1.1943,0.2653,0
9006509,0.9850,0.0600,0.0183,0.1607,0.2964,-1.2189,0.2036,0
9006676,0.9850,0.0604,0.0183,0.1607,0.2715,-1.2366,0.2023,0
9006843,0.9850,0.0608,0.0183,0.1607,0.3035,-1.2122,0.2376,0
9007009,0.9849,0.0612,0.0183,0.1607,0.3032,-1.2194,0.2324,0
9007343,0.9849,0.0620,0.0184,0.1608,0.3127,-1.2617,0.2017,0
9007509,0.9849,0.0624,0.0184,0.1608,0.3060,-1.2539,0.2209,0
9008176,0.9848,0.0638,0.0185,0.1607,0.3112,-1.2914,0.2121,0
9008343,0.9847,0.0642,0.0185,0.1607,0.2939,-1.3075,0.1895,0
9008509,0.9847,0.0645,0.0185,0.1607,0.3440,-1.2792,0.1677,0
9008843,0.9853,0.0622,0.0274,0.1566,-0.1682,-2.0626,3.2239,0
9009009,0.9857,0.0654,0.0176,0.1546,1.1547,-1.9499,-2.3905,0
9009176,0.9861,0.0657,0.0200,0.1512,0.4798,-2.3662,0.8131,0
9009343,0.9870,0.0662,0.0197,0.1454,0.7427,-2.5256,0.4697,0
9009509,0.9872,0.0667,0.0194,0.1432,1.6357,1.2875,0.2092,0
9009676,0.9875,0.0669,0.0195,0.1412,1.6728,-1.4417,0.0700,0
9009843,0.9882,0.0673,0.0192,0.1364,1.3171,-2.1242,0.5635,0
9010009,0.9893,0.0684,0.0140,0.1279,1.6770,-2.1630,1.5798,0
9010176,0.9907,0.0708,-0.0043,0.1164,0.6586,-2.4071,2.4820,0
9010343,0.9912,0.0738,-0.0335,0.1048,-0.4363,-2.3850,1.6682,0
9010509,0.9904,0.0767,-0.0664,0.0943,-1.2012,-1.5073,-0.0731,0
9010676,0.9885,0.0788,-0.0963,0.0864,-1.4839,-0.1740,-0.2471,0
9010843,0.9861,0.0802,-0.1211,0.0812,-0.9762,-0.3989,-1.0381,0
9011009,0.9835,0.0816,-0.1413,0.0779,-0.8090,-1.0290,-0.2572,0
9011176,0.9811,0.0826,-0.1574,0.0759,0.1062,-1.4200,-0.5404,0
9011509,0.9689,0.0873,-0.2215,0.0677,-3.4286,-2.1140,4.4914,0
9011676,0.9503,0.0926,-0.2907,0.0622,-4.0949,-2.5164,2.8159,0
9011843,0.9185,0.0992,-0.3789,0.0547,-2.9699,-2.9924,-0.3417,0
9012009,0.8726,0.1052,-0.4748,0.0451,-1.6117,-3.0121,-3.2940,0
9012176,0.8118,0.1100,-0.5724,0.0344,-1.5872,-1.2836,-6.1414,0
9012343,0.7515,0.1125,-0.6496,0.0267,2.5465,-0.4092,-4.0735,0
9012510,0.7079,0.1139,-0.6967,0.0217,4.1435,0.9791,0.9054,0
9012676,0.6863,0.1142,-0.7181,0.0169,3.2236,1.8724,-0.2991,0
9012843,0.6752,0.1136,-0.7287,0.0126,1.4420,0.2979,-0.1624,0
9013010,0.6691,0.1128,-0.7345,0.0108,-0.7167,-0.8095,0.2761,0
9013176,0.6626,0.1137,-0.7402,0.0115,0.9835,-1.8392,0.0453,0
9013343,0.6664,0.1162,-0.7363,0.0154,1.9086,-1.4531,-0.2407,0
9013676,0.6948,0.1195,-0.7087,0.0262,3.0137,-0.4311,-0.2737,0
9013843,0.7206,0.1194,-0.6823,0.0324,1.3675,-0.1141,0.9047,0
9014010,0.7313,0.1191,-0.6707,0.0361,-0.7100,-0.8048,-0.4654,0
9014176,0.7467,0.1178,-0.6534,0.0397,3.0479,-0.7573,-0.0248,0
9014343,0.7694,0.1160,-0.6266,0.0447,1.7594,-1.1296,-0.6208,0
9014510,0.7996,0.1136,-0.5874,0.0519,2.6863,-0.6753,-1.5521,0
9014676,0.8354,0.1103,-0.5351,0.0610,2.3416,-0.7320,-2.3145,0
9014843,0.8735,0.1057,-0.4698,0.0715,1.8021,-1.0116,-3.5016,0
9015010,0.9098,0.0994,-0.3944,0.0822,1.0215,-1.1820,-3.1039,0
9015176,0.9397,0.0921,-0.3163,0.0917,0.1334,-1.8571,-1.1011,0
9015343,0.9571,0.0861,-0.2594,0.0963,-3.5241,-4.2368,4.8128,0
9015510,0.9646,0.0823,-0.2319,0.0952,-1.0830,-2.7365,2.4937,0
9016010,0.9749,0.0742,-0.1940,0.0805,-0.9828,-1.9729,2.5869,0
9016176,0.9725,0.0739,-0.2084,0.0726,-2.0252,-1.8235,3.3791,0
9016343,0.9653,0.0749,-0.2417,0.0646,-2.6273,-1.8135,2.4756,0
9016676,0.9372,0.0801,-0.3353,0.0537,-2.0971,-2.6053,1.1155,0
9016843,0.9106,0.0832,-0.4021,0.0463,-2.5434,-2.3349,1.0775,0
9017010,0.8693,0.0857,-0.4854,0.0360,-2.6500,-2.1491,-1.7613,0
9017176,0.8144,0.0865,-0.5733,0.0241,-1.4900,-1.7768,-4.2813,0
9017343,0.7526,0.0847,-0.6529,0.0126,-0.3731,-0.9018,-5.0527,0
9017510,0.6975,0.0826,-0.7118,0.0040,1.8223,-0.0717,1.0708,0
9018176,0.5524,0.0772,-0.8299,-0.0126,2.3816,-0.5042,0.4388,0
9018343,0.5398,0.0773,-0.8381,-0.0126,2.6803,-0.4228,2.2757,0
9018510,0.5370,0.0794,-0.8398,-0.0105,1.3966,-0.8530,-0.0655,0
9018676,0.5382,0.0823,-0.8388,-0.0077,2.7915,-1.1661,0.3631,0
9018843,0.5484,0.0836,-0.8320,-0.0049,3.8482,0.2734,1.3402,0
9019010,0.5772,0.0831,-0.8124,-0.0011,3.8345,1.2603,1.6890,0
9019676,0.8126,0.0803,-0.5762,0.0353,0.5319,-1.4633,-3.2004,0
9019843,0.8605,0.0770,-0.5016,0.0443,1.6997,-1.7475,-4.7369,0
9020010,0.9063,0.0724,-0.4129,0.0543,1.9735,-1.8687,-5.2563,0
9020176,0.9441,0.0661,-0.3167,0.0634,0.0902,-2.0538,-1.3565,0
9020343,0.9661,0.0548,-0.2435,0.0661,-3.1638,-2.5362,6.7997,0
9020510,0.9725,0.0489,-0.2196,0.0606,-1.0436,-3.2798,4.7573,0
9020843,0.9692,0.0475,-0.2376,0.0443,-3.7365,-1.9699,2.7161,0
9021010,0.9593,0.0514,-0.2750,0.0387,-3.8850,-2.1889,2.2325,0
9021176,0.9437,0.0558,-0.3244,0.0334,-2.2800,-0.4532,-0.0898,0
9021343,0.9290,0.0568,-0.3644,0.0295,-1.5217,1.5500,0.7457,0
9021510,0.9082,0.0562,-0.4142,0.0221,-2.1562,-0.4879,0.7434,0
9021676,0.8788,0.0551,-0.4739,0.0138,-3.3951,-1.5232,-0.3745,0
9021843,0.8420,0.0538,-0.5368,0.0070,-2.9623,-1.5670,-2.6243,0
9022010,0.8008,0.0540,-0.5965,0.0030,-2.8503,-1.4050,-2.1388,0
9022176,0.7553,0.0554,-0.6531,0.0009,-2.8532,-0.5649,-2.8312,0
9022343,0.7092,0.0574,-0.7027,-0.0012,1.7739,0.8564,2.1281,0
9022510,0.6755,0.0572,-0.7352,-0.0030,0.7073,0.0546,-1.6139,0
9022676,0.6411,0.0566,-0.7653,-0.0050,0.6880,-1.0051,-1.0893,0
9022843,0.6093,0.0565,-0.7909,-0.0066,1.9013,-0.9686,-0.7063,0
9023010,0.5804,0.0559,-0.8124,-0.0081,1.1067,-0.8938,-0.4517,0
9023176,0.5608,0.0564,-0.8260,-0.0081,2.0646,-0.8094,0.9406,0
9023510,0.5706,0.0589,-0.8191,-0.0040,4.0708,0.6217,2.7354,0
9023676,0.6222,0.0609,-0.7805,0.0025,5.2874,0.7331,1.1311,0
9023843,0.7046,0.0638,-0.7066,0.0144,4.4397,1.4717,-5.0799,0
9024010,0.7733,0.0664,-0.6300,0.0270,1.4509,-0.0419,-1.4022,0
9024176,0.8274,0.0662,-0.5563,0.0392,0.2299,-1.0381,-1.7579,0
9024343,0.8744,0.0641,-0.4784,0.0498,2.4270,-1.4683,-4.5218,0
9024510,0.9144,0.0588,-0.3965,0.0571,2.6847,-2.1598,-2.3712,0
9024676,0.9425,0.0495,-0.3253,0.0590,-1.7256,-0.7200,3.6165,0
9024843,0.9523,0.0432,-0.2971,0.0543,-1.5584,-3.1174,5.4310,0
9025676,0.9591,0.0390,-0.2789,0.0269,-4.2191,0.0255,1.1795,0
9025843,0.9625,0.0385,-0.2670,0.0272,-1.8427,-1.0511,0.5548,0
9026010,0.9652,0.0382,-0.2573,0.0280,-0.3515,-0.9572,0.5545,0
9026176,0.9662,0.0381,-0.2532,0.0286,-1.3463,-0.7945,1.5302,0
9026343,0.9659,0.0381,-0.2545,0.0288,-0.1404,-0.6081,0.4176,0
9026510,0.9665,0.0380,-0.2520,0.0293,1.4019,-0.3851,-1.0706,0
9026676,0.9695,0.0376,-0.2405,0.0301,1.7424,-0.3447,-1.4345,0
9028010,0.9987,0.0292,0.0221,0.0350,0.2543,-0.6407,-0.5513,0
9028176,0.9987,0.0293,0.0223,0.0351,0.1129,-0.5441,0.7253,0
9028676,0.9987,0.0295,0.0224,0.0355,0.2752,-0.5736,0.2039,0
9028843,0.9987,0.0296,0.0226,0.0356,0.2766,-0.5598,0.2779,0
9029177,0.9987,0.0297,0.0228,0.0358,0.2134,-0.5769,0.3323,0
9029343,0.9986,0.0298,0.0228,0.0360,0.2158,-0.5869,0.2620,0
9029510,0.9986,0.0298,0.0228,0.0361,0.2439,-0.5739,0.2572,0
9030177,0.9986,0.0301,0.0229,0.0366,0.2512,-0.5752,0.2057,0
9030343,0.9986,0.0302,0.0230,0.0368,0.2278,-0.6023,0.3611,0
9030510,0.9986,0.0302,0.0230,0.0369,0.2371,-0.5938,0.2526,0
9031343,0.9986,0.0306,0.0230,0.0376,0.2333,-0.6085,0.2870,0
9031510,0.9985,0.0307,0.0230,0.0378,0.2335,-0.5938,0.2778,0
9031677,0.9985,0.0308,0.0230,0.0380,0.2435,-0.5926,0.2653,0
9032177,0.9985,0.0310,0.0230,0.0384,0.2193,-0.6128,0.2763,0
9032343,0.9985,0.0311,0.0231,0.0386,0.2302,-0.6070,0.2585,0
9032510,0.9985,0.0311,0.0231,0.0388,0.2274,-0.6179,0.2947,0
9032843,0.9985,0.0313,0.0230,0.0391,0.2366,-0.6086,0.2782,0
9033010,0.9985,0.0313,0.0231,0.0393,0.2475,-0.6313,0.2881,0
9033177,0.9985,0.0314,0.0231,0.0394,0.2489,-0.6190,0.2623,0
9033343,0.9985,0.0315,0.0230,0.0396,0.2364,-0.6032,0.2757,0
9033510,0.9984,0.0315,0.0230,0.0398,0.2227,-0.6295,0.2918,0
9033677,0.9984,0.0316,0.0231,0.0400,0.2334,-0.6392,0.2649,0
9034343,0.9984,0.0319,0.0230,0.0406,0.2375,-0.6319,0.2677,0
9034510,0.9984,0.0320,0.0230,0.0408,0.2320,-0.6365,0.2820,0
9034677,0.9984,0.0321,0.0230,0.0410,0.2465,-0.6247,0.2914,0
9034843,0.9984,0.0321,0.0230,0.0412,0.2435,-0.6314,0.2431,0
9035510,0.9983,0.0324,0.0230,0.0419,0.2273,-0.6534,0.2975,0
9035677,0.9983,0.0325,0.0229,0.0421,0.2295,-0.6360,0.2909,0
9036343,0.9983,0.0328,0.0229,0.0429,0.2361,-0.6389,0.2499,0
9036510,0.9983,0.0328,0.0229,0.0431,0.2289,-0.6233,0.2782,0
9036677,0.9983,0.0329,0.0228,0.0433,0.2200,-0.6434,0.3009,0
9037010,0.9982,0.0330,0.0228,0.0437,0.2442,-0.6604,0.2737,0
9037177,0.9982,0.0331,0.0228,0.0439,0.2495,-0.6557,0.2900,0
9037343,0.9982,0.0332,0.0228,0.0441,0.2457,-0.6518,0.2571,0
9037677,0.9982,0.0333,0.0228,0.0445,0.2314,-0.6671,0.2927,0
9037843,0.9982,0.0334,0.0227,0.0447,0.2338,-0.6289,0.2883,0
9038010,0.9982,0.0335,0.0227,0.0449,0.2616,-0.6599,0.2663,0
9038177,0.9982,0.0335,0.0227,0.0451,0.2495,-0.6931,0.2838,0
9038510,0.9981,0.0337,0.0227,0.0456,0.2407,-0.6406,0.2766,0
9039177,0.9981,0.0339,0.0226,0.0464,0.2323,-0.6694,0.2665,0
9039343,0.9981,0.0340,0.0226,0.0466,0.2398,-0.6957,0.2641,0
9040010,0.9980,0.0343,0.0225,0.0475,0.2223,-0.6917,0.2429,0
9040177,0.9980,0.0344,0.0224,0.0477,0.2386,-0.7149,0.2698,0
9040677,0.9980,0.0346,0.0224,0.0484,0.2359,-0.6700,0.2985,0
9040843,0.9980,0.0346,0.0223,0.0486,0.2156,-0.7076,0.2827,0
9041010,0.9980,0.0347,0.0223,0.0488,0.2130,-0.6957,0.2760,0
9041177,0.9979,0.0348,0.0223,0.0491,0.2564,-0.6856,0.2812,0
9041343,0.9979,0.0348,0.0223,0.0493,0.2704,-0.6897,0.3126,0
9041510,0.9979,0.0349,0.0223,0.0495,0.2464,-0.6974,0.2619,0
9041843,0.9979,0.0350,0.0222,0.0500,0.2033,-0.6865,0.2971,0
9042010,0.9979,0.0351,0.0222,0.0502,0.2380,-0.6836,0.2605,0
9042177,0.9979,0.0352,0.0222,0.0504,0.2415,-0.6975,0.3106,0
9042677,0.9978,0.0354,0.0221,0.0511,0.2208,-0.7184,0.2794,0
9042843,0.9978,0.0354,0.0221,0.0514,0.2145,-0.6941,0.2900,0
9043010,0.9978,0.0355,0.0220,0.0516,0.2430,-0.6875,0.2615,0
9044177,0.9977,0.0359,0.0218,0.0532,0.2500,-0.7105,0.2761,0
9044343,0.9977,0.0360,0.0218,0.0535,0.2283,-0.7312,0.2644,0
9044510,0.9977,0.0361,0.0218,0.0537,0.2310,-0.7261,0.2673,0
9044843,0.9976,0.0362,0.0217,0.0542,0.1964,-0.7095,0.2697,0
9045010,0.9976,0.0362,0.0217,0.0544,0.2120,-0.7223,0.2637,0
9045177,0.9976,0.0363,0.0217,0.0547,0.3719,-0.6505,0.3796,0
9045677,0.9976,0.0365,0.0216,0.0554,0.2225,-0.6420,0.2685,0
9045844,0.9976,0.0365,0.0216,0.0556,0.1776,-0.7209,0.1994,0
9046010,0.9975,0.0366,0.0215,0.0559,0.2053,-0.8007,0.3360,0
9046344,0.9975,0.0367,0.0215,0.0563,0.2923,-0.6967,0.2323,0
9046510,0.9975,0.0368,0.0215,0.0566,0.1839,-0.7143,0.3085,0
9046677,0.9975,0.0368,0.0214,0.0568,0.1819,-0.7481,0.2872,0
9046844,0.9975,0.0369,0.0214,0.0571,0.2227,-0.7121,0.1979,0
9047010,0.9974,0.0370,0.0213,0.0573,0.2185,-0.7368,0.2911,0
9047177,0.9974,0.0370,0.0213,0.0576,0.2540,-0.7649,0.2748,0
9048344,0.9973,0.0374,0.0211,0.0593,0.2270,-0.7656,0.2290,0
9048510,0.9973,0.0375,0.0211,0.0595,0.2269,-0.7560,0.2275,0
9048677,0.9973,0.0376,0.0211,0.0598,0.1760,-0.7374,0.3066,0
9049010,0.9973,0.0377,0.0210,0.0603,0.2509,-0.7301,0.2320,0
9049177,0.9972,0.0377,0.0210,0.0605,0.2708,-0.7935,0.3091,0
9049344,0.9972,0.0378,0.0209,0.0607,0.2292,-0.7829,0.2502,0
9049510,0.9972,0.0378,0.0209,0.0610,0.1853,-0.7417,0.2449,0
9049677,0.9972,0.0379,0.0209,0.0612,0.2034,-0.7336,0.3002,0
9049844,0.9972,0.0379,0.0209,0.0615,0.2118,-0.7679,0.3113,0
9050010,0.9972,0.0380,0.0208,0.0617,0.1987,-0.7886,0.2532,0
9050177,0.9971,0.0380,0.0208,0.0620,0.2392,-0.7625,0.2387,0
9050344,0.9971,0.0381,0.0208,0.0622,0.2648,-0.7834,0.2952,0
9050510,0.9971,0.0381,0.0207,0.0625,0.2234,-0.7650,0.3083,0
9050677,0.9971,0.0382,0.0207,0.0627,0.1787,-0.7265,0.2460,0
9050844,0.9971,0.0382,0.0207,0.0630,0.1779,-0.7517,0.2293,0
9051010,0.9970,0.0383,0.0207,0.0632,0.2386,-0.8072,0.2614,0
9051177,0.9970,0.0384,0.0206,0.0635,0.2551,-0.7800,0.2509,0
9051344,0.9970,0.0384,0.0206,0.0638,0.2398,-0.7505,0.3232,0
9051510,0.9970,0.0384,0.0206,0.0640,0.1826,-0.7390,0.2672,0
9051677,0.9970,0.0385,0.0206,0.0643,0.1219,-0.7837,0.2457,0
9051844,0.9970,0.0385,0.0205,0.0645,0.1557,-0.7801,0.2780,0
9052010,0.9969,0.0386,0.0205,0.0648,0.2819,-0.7762,0.2831,0
9052177,0.9969,0.0386,0.0205,0.0650,0.3128,-0.7885,0.2507,0
9052344,0.9969,0.0387,0.0204,0.0653,0.2230,-0.7891,0.2926,0
9052510,0.9969,0.0387,0.0204,0.0655,0.1398,-0.7821,0.2286,0
9052677,0.9969,0.0388,0.0204,0.0658,0.1429,-0.7540,0.2645,0
9052844,0.9969,0.0388,0.0203,0.0661,0.2118,-0.7499,0.2504,0
9053010,0.9968,0.0389,0.0203,0.0663,0.2698,-0.7864,0.3257,0
9053177,0.9968,0.0389,0.0203,0.0666,0.2609,-0.8117,0.2080,0
9053344,0.9968,0.0390,0.0202,0.0668,0.2152,-0.8169,0.2743,0
9053844,0.9967,0.0391,0.0202,0.0676,0.1921,-0.7563,0.2449,0
9054177,0.9967,0.0392,0.0201,0.0681,0.2480,-0.8230,0.2618,0
9054677,0.9966,0.0393,0.0200,0.0689,0.1516,-0.7658,0.2625,0
9054844,0.9966,0.0394,0.0200,0.0691,0.1817,-0.7712,0.2606,0
9055010,0.9966,0.0394,0.0200,0.0694,0.2353,-0.8146,0.2665,0
9055344,0.9966,0.0395,0.0199,0.0699,0.2348,-0.7867,0.2673,0
9055510,0.9966,0.0395,0.0199,0.0702,0.1722,-0.7922,0.2987,0
9055677,0.9965,0.0396,0.0199,0.0704,0.1438,-0.7712,0.2716,0
9055844,0.9965,0.0396,0.0198,0.0707,0.1709,-0.7751,0.2485,0
9056010,0.9965,0.0396,0.0198,0.0709,0.2357,-0.7999,0.2812,0
9056177,0.9965,0.0397,0.0198,0.0712,0.2662,-0.8331,0.2554,0
9056344,0.9965,0.0397,0.0198,0.0715,0.2283,-0.8142,0.2568,0
9056510,0.9964,0.0398,0.0197,0.0717,0.1810,-0.7847,0.2814,0
9056677,0.9964,0.0398,0.0197,0.0720,0.1564,-0.7751,0.2822,0
9056844,0.9964,0.0398,0.0196,0.0722,0.1791,-0.7712,0.2676,0
9057010,0.9964,0.0399,0.0196,0.0725,0.2423,-0.8219,0.2585,0
9057177,0.9964,0.0399,0.0196,0.0728,0.2613,-0.8389,0.2589,0
9057344,0.9963,0.0399,0.0196,0.0730,0.2294,-0.8189,0.2629,0
9057510,0.9963,0.0400,0.0195,0.0733,0.1772,-0.7884,0.2999,0
9057677,0.9963,0.0400,0.0195,0.0735,0.1532,-0.7773,0.2650,0
9058344,0.9962,0.0401,0.0194,0.0746,0.2316,-0.8307,0.2238,0
9058510,0.9962,0.0402,0.0194,0.0748,0.1795,-0.7977,0.2737,0
9058677,0.9962,0.0402,0.0194,0.0751,0.1426,-0.7855,0.2900,0
9058844,0.9962,0.0402,0.0194,0.0754,0.1675,-0.7874,0.2338,0
9059010,0.9961,0.0402,0.0193,0.0756,0.2398,-0.8201,0.2802,0
9059177,0.9961,0.0403,0.0193,0.0759,0.2387,-0.8423,0.2783,0
9059344,0.9961,0.0403,0.0193,0.0761,0.2209,-0.8200,0.2839,0
9059510,0.9961,0.0403,0.0192,0.0764,0.2170,-0.7986,0.3108,0
9059677,0.9961,0.0404,0.0192,0.0766,0.1548,-0.8135,0.1926,0
9059844,0.9960,0.0404,0.0192,0.0769,0.1746,-0.7951,0.2320,0
9060010,0.9960,0.0404,0.0191,0.0772,0.2057,-0.8145,0.2937,0
9060177,0.9960,0.0405,0.0191,0.0774,0.2392,-0.8294,0.2210,0
9060344,0.9960,0.0405,0.0191,0.0777,0.2159,-0.8217,0.2473,0
9060510,0.9960,0.0405,0.0191,0.0779,0.1916,-0.8096,0.3063,0
9060677,0.9959,0.0405,0.0190,0.0782,0.1703,-0.7948,0.2573,0
9061010,0.9959,0.0406,0.0190,0.0787,0.2102,-0.8070,0.2944,0
9061177,0.9959,0.0406,0.0189,0.0790,0.2259,-0.8285,0.2475,0
9061344,0.9959,0.0406,0.0189,0.0792,0.2195,-0.8605,0.2177,0
9061677,0.9958,0.0407,0.0189,0.0797,0.1839,-0.7769,0.2634,0
9061844,0.9958,0.0407,0.0188,0.0800,0.1728,-0.8211,0.2381,0
9062010,0.9958,0.0407,0.0188,0.0802,0.1839,-0.8420,0.2719,0
9062511,0.9957,0.0408,0.0187,0.0810,0.1932,-0.8472,0.2542,0
9062677,0.9957,0.0408,0.0187,0.0813,0.1851,-0.8317,0.3002,0
9062844,0.9957,0.0408,0.0187,0.0815,0.1784,-0.7985,0.2490,0
9063177,0.9956,0.0408,0.0186,0.0820,0.2059,-0.8302,0.2850,0
9063344,0.9956,0.0409,0.0186,0.0823,0.2196,-0.8234,0.2467,0
9063511,0.9956,0.0409,0.0186,0.0826,0.1820,-0.8489,0.2315,0
9063677,0.9956,0.0409,0.0185,0.0828,0.1578,-0.8409,0.2786,0
9063844,0.9955,0.0409,0.0185,0.0831,0.1824,-0.7994,0.2596,0
9064011,0.9955,0.0409,0.0185,0.0833,0.1972,-0.8153,0.2719,0
9064677,0.9954,0.0410,0.0184,0.0843,0.1694,-0.8318,0.2611,0
9064844,0.9954,0.0410,0.0183,0.0846,0.1791,-0.8124,0.2580,0
9065011,0.9954,0.0410,0.0183,0.0848,0.1860,-0.8107,0.2566,0
9065177,0.9954,0.0410,0.0183,0.0851,0.1781,-0.8473,0.2549,0
9065344,0.9953,0.0410,0.0183,0.0853,0.1884,-0.8439,0.2573,0
9065511,0.9953,0.0410,0.0182,0.0856,0.1869,-0.8311,0.2826,0
9065844,0.9953,0.0411,0.0182,0.0861,0.1598,-0.8263,0.2597,0
9066011,0.9953,0.0411,0.0182,0.0863,0.1705,-0.8134,0.2790,0
9066177,0.9952,0.0411,0.0181,0.0866,0.2006,-0.8302,0.2582,0
9066344,0.9952,0.0411,0.0181,0.0868,0.2156,-0.8433,0.2573,0
9066511,0.9952,0.0411,0.0181,0.0871,0.1874,-0.8321,0.2809,0
9066677,0.9952,0.0411,0.0181,0.0873,0.1855,-0.8137,0.2617,0
9066844,0.9951,0.0411,0.0180,0.0876,0.1744,-0.8255,0.2332,0
9067011,0.9951,0.0412,0.0180,0.0878,0.1685,-0.8267,0.2745,0
9067177,0.9951,0.0412,0.0180,0.0881,0.1861,-0.8322,0.2839,0
9067344,0.9951,0.0412,0.0180,0.0883,0.1944,-0.8363,0.2501,0
9067511,0.9951,0.0412,0.0179,0.0886,0.1878,-0.8396,0.2628,0
9067677,0.9950,0.0412,0.0179,0.0888,0.1821,-0.8196,0.2473,0
9067844,0.9950,0.0412,0.0179,0.0891,0.1749,-0.8098,0.2659,0
9068011,0.9950,0.0412,0.0179,0.0893,0.1858,-0.8288,0.2829,0
9068177,0.9950,0.0412,0.0178,0.0896,0.1902,-0.8371,0.2600,0
9068344,0.9949,0.0412,0.0178,0.0898,0.1841,-0.8370,0.2647,0
9068511,0.9949,0.0412,0.0178,0.0900,0.1844,-0.8435,0.2383,0
9068677,0.9949,0.0413,0.0177,0.0903,0.1752,-0.8353,0.2810,0
9068844,0.9949,0.0413,0.0177,0.0905,0.1793,-0.8239,0.2880,0
9069344,0.9948,0.0413,0.0176,0.0913,0.1932,-0.8502,0.2709,0
9069511,0.9948,0.0413,0.0176,0.0915,0.1838,-0.8268,0.2657,0
9069677,0.9948,0.0413,0.0176,0.0918,0.1749,-0.8286,0.2396,0
9070011,0.9947,0.0413,0.0175,0.0922,0.1910,-0.8293,0.2911,0
9070177,0.9947,0.0413,0.0175,0.0925,0.1981,-0.8280,0.2761,0
9070344,0.9947,0.0413,0.0174,0.0927,0.1927,-0.8480,0.2615,0
9070511,0.9947,0.0412,0.0174,0.0930,0.1802,-0.8405,0.2914,0
9070677,0.9946,0.0412,0.0174,0.0932,0.1684,-0.8200,0.2593,0
9070844,0.9946,0.0412,0.0174,0.0935,0.1674,-0.8287,0.2444,0
9071011,0.9946,0.0412,0.0173,0.0937,0.1847,-0.8209,0.2929,0
9071177,0.9946,0.0412,0.0173,0.0939,0.1809,-0.8443,0.2618,0
9071344,0.9946,0.0412,0.0173,0.0942,0.1846,-0.8392,0.2541,0
9071511,0.9945,0.0412,0.0173,0.0944,0.1852,-0.8304,0.2813,0
9071677,0.9945,0.0412,0.0173,0.0947,0.1801,-0.8178,0.2535,0
9071844,0.9945,0.0412,0.0172,0.0949,0.1801,-0.8342,0.2664,0
9072344,0.9944,0.0412,0.0172,0.0956,0.1728,-0.8316,0.2730,0
9072511,0.9944,0.0412,0.0171,0.0959,0.1864,-0.8471,0.2854,0
9072677,0.9944,0.0412,0.0171,0.0961,0.1768,-0.8381,0.2578,0
9073011,0.9943,0.0411,0.0171,0.0966,0.1729,-0.8515,0.2617,0
9073177,0.9943,0.0411,0.0170,0.0968,0.1708,-0.8394,0.2696,0
9073677,0.9942,0.0411,0.0170,0.0975,0.1773,-0.8380,0.2691,0
9073844,0.9942,0.0411,0.0169,0.0978,0.1691,-0.8290,0.2868,0
9074011,0.9942,0.0411,0.0169,0.0980,0.1617,-0.8212,0.2422,0
9074177,0.9942,0.0411,0.0169,0.0983,0.1684,-0.8491,0.2552,0
9074511,0.9941,0.0410,0.0169,0.0987,0.1777,-0.8285,0.2534,0
9075177,0.9940,0.0410,0.0167,0.0997,0.1715,-0.8380,0.2561,0
9075344,0.9940,0.0410,0.0167,0.0999,0.1904,-0.8297,0.2649,0
9075677,0.9940,0.0410,0.0167,0.1004,0.1761,-0.8353,0.2694,0
9075844,0.9939,0.0410,0.0166,0.1006,0.1564,-0.8326,0.2666,0
9076011,0.9939,0.0409,0.0166,0.1009,0.1665,-0.8318,0.2797,0
9076177,0.9939,0.0409,0.0166,0.1011,0.1689,-0.8298,0.2621,0
9076344,0.9939,0.0409,0.0166,0.1013,0.1714,-0.8422,0.2599,0
9076511,0.9939,0.0409,0.0166,0.1016,0.1658,-0.8292,0.2672,0
9076677,0.9938,0.0409,0.0165,0.1018,0.1658,-0.8290,0.2704,0
9076844,0.9938,0.0409,0.0165,0.1020,0.1660,-0.8189,0.2797,0
9077011,0.9938,0.0409,0.0165,0.1022,0.1661,-0.8331,0.2507,0
9077177,0.9938,0.0408,0.0164,0.1025,0.1622,-0.8410,0.2584,0
9077344,0.9937,0.0408,0.0164,0.1027,0.1676,-0.8437,0.2728,0
9077511,0.9937,0.0408,0.0164,0.1029,0.1540,-0.8246,0.2439,0
9077844,0.9937,0.0408,0.0163,0.1034,0.1528,-0.8170,0.3046,0
9078011,0.9936,0.0408,0.0163,0.1036,0.1762,-0.8348,0.2426,0
9078177,0.9936,0.0407,0.0163,0.1038,0.1701,-0.8270,0.2521,0
9078344,0.9936,0.0407,0.0163,0.1041,0.1739,-0.8332,0.2683,0
9078511,0.9936,0.0407,0.0162,0.1043,0.1674,-0.8211,0.2751,0
9078677,0.9936,0.0407,0.0162,0.1045,0.1689,-0.8331,0.2591,0
9079344,0.9935,0.0406,0.0161,0.1054,0.1790,-0.8277,0.2669,0
9079511,0.9934,0.0406,0.0161,0.1056,0.1642,-0.8287,0.2835,0
9080178,0.9934,0.0405,0.0160,0.1065,0.1736,-0.8265,0.2451,0
9080344,0.9933,0.0405,0.0160,0.1068,0.1720,-0.8297,0.2619,0
9080511,0.9933,0.0405,0.0160,0.1070,0.1704,-0.8456,0.2679,0
9080844,0.9933,0.0405,0.0159,0.1074,0.1527,-0.8020,0.2400,0
9081011,0.9932,0.0404,0.0159,0.1077,0.1543,-0.8238,0.2454,0
9081178,0.9932,0.0404,0.0158,0.1079,0.1531,-0.8404,0.2935,0
9081344,0.9932,0.0404,0.0158,0.1081,0.1465,-0.8401,0.2447,0
9081511,0.9932,0.0404,0.0158,0.1083,0.1717,-0.7980,0.2351,0
9081678,0.9931,0.0404,0.0158,0.1085,0.1680,-0.8108,0.3081,0
9082011,0.9931,0.0403,0.0158,0.1090,0.1492,-0.8271,0.2642,0
9082178,0.9931,0.0403,0.0157,0.1092,0.1576,-0.8164,0.2697,0
9082344,0.9931,0.0403,0.0157,0.1094,0.1601,-0.8088,0.2944,0
9082511,0.9930,0.0402,0.0157,0.1096,0.1633,-0.8179,0.2776,0
9082678,0.9930,0.0402,0.0156,0.1098,0.1418,-0.8406,0.2403,0
9082844,0.9930,0.0402,0.0156,0.1101,0.1685,-0.7987,0.2784,0
9083011,0.9930,0.0402,0.0156,0.1103,0.1591,-0.8100,0.2692,0
9083178,0.9929,0.0402,0.0156,0.1105,0.1603,-0.8213,0.2679,0
9083511,0.9929,0.0401,0.0155,0.1109,0.1654,-0.8225,0.2334,0
9083678,0.9929,0.0401,0.0155,0.1111,0.1572,-0.8100,0.2618,0
9083844,0.9929,0.0401,0.0155,0.1113,0.1736,-0.8164,0.2994,0
9084344,0.9928,0.0400,0.0155,0.1120,0.1453,-0.8117,0.2680,0
9084511,0.9928,0.0399,0.0154,0.1122,0.1477,-0.8112,0.2830,0
9085011,0.9927,0.0399,0.0154,0.1128,0.1466,-0.8157,0.2903,0
9085178,0.9927,0.0398,0.0153,0.1130,0.1523,-0.8177,0.2641,0
9085678,0.9926,0.0398,0.0153,0.1136,0.1711,-0.8080,0.2734,0
9085844,0.9926,0.0397,0.0153,0.1138,0.1531,-0.8118,0.2440,0
9086511,0.9925,0.0396,0.0152,0.1147,0.1411,-0.8226,0.2544,0
9086678,0.9925,0.0395,0.0152,0.1149,0.1674,-0.8020,0.2659,0
9086844,0.9925,0.0395,0.0151,0.1151,0.1503,-0.8087,0.2724,0
9087178,0.9924,0.0395,0.0151,0.1155,0.1220,-0.8064,0.2594,0
9087344,0.9924,0.0394,0.0151,0.1157,0.1312,-0.8051,0.2743,0
9087511,0.9924,0.0394,0.0150,0.1159,0.1527,-0.8128,0.2337,0
9087678,0.9923,0.0393,0.0150,0.1161,0.1491,-0.8179,0.2697,0
9087844,0.9923,0.0393,0.0150,0.1163,0.1458,-0.8072,0.3014,0
9088011,0.9923,0.0393,0.0150,0.1165,0.1450,-0.8053,0.2461,0
9088178,0.9923,0.0393,0.0150,0.1167,0.1434,-0.8127,0.2673,0
9088344,0.9923,0.0392,0.0149,0.1169,0.1461,-0.8165,0.2769,0
9088511,0.9922,0.0392,0.0149,0.1171,0.1476,-0.8026,0.2593,0
9088678,0.9922,0.0391,0.0149,0.1173,0.1491,-0.8147,0.2871,0
9088844,0.9922,0.0391,0.0149,0.1175,0.1426,-0.8076,0.2823,0
9089011,0.9922,0.0391,0.0149,0.1177,0.1598,-0.7998,0.2406,0
9089178,0.9921,0.0390,0.0148,0.1179,0.1292,-0.8005,0.2913,0
9089344,0.9921,0.0390,0.0148,0.1181,0.1341,-0.8035,0.2902,0
9089511,0.9921,0.0390,0.0148,0.1183,0.1457,-0.7959,0.2348,0
9089844,0.9921,0.0389,0.0148,0.1187,0.1521,-0.8036,0.2929,0
9090011,0.9920,0.0389,0.0147,0.1189,0.1497,-0.7817,0.2556,0
9090178,0.9920,0.0388,0.0147,0.1191,0.1306,-0.7975,0.2719,0
9090678,0.9919,0.0387,0.0147,0.1197,0.1558,-0.7971,0.2742,0
9090844,0.9919,0.0387,0.0146,0.1199,0.1556,-0.8095,0.2769,0
9091344,0.9919,0.0386,0.0146,0.1205,0.1234,-0.8101,0.3035,0
9091511,0.9918,0.0385,0.0146,0.1207,0.1387,-0.7919,0.2468,0
9091678,0.9918,0.0385,0.0145,0.1209,0.1555,-0.7819,0.2794,0
9091844,0.9918,0.0385,0.0145,0.1211,0.1485,-0.7937,0.2958,0
9092011,0.9918,0.0384,0.0145,0.1213,0.1270,-0.7944,0.2618,0
9092178,0.9917,0.0384,0.0145,0.1215,0.1321,-0.7741,0.2866,0
9092844,0.9917,0.0382,0.0144,0.1222,0.1477,-0.7804,0.2439,0
9093011,0.9916,0.0382,0.0144,0.1224,0.1279,-0.8087,0.2591,0
9093344,0.9916,0.0381,0.0144,0.1228,0.1199,-0.7644,0.2787,0
9093511,0.9916,0.0381,0.0143,0.1230,0.1389,-0.7733,0.2575,0
9093678,0.9915,0.0380,0.0143,0.1232,0.1469,-0.7811,0.2834,0
9094011,0.9915,0.0380,0.0143,0.1236,0.1283,-0.7859,0.2474,0
9094178,0.9915,0.0379,0.0143,0.1238,0.1026,-0.8027,0.2689,0
9094344,0.9915,0.0379,0.0142,0.1240,0.1365,-0.7365,0.1656,0
9094511,0.9914,0.0378,0.0142,0.1242,0.1940,-0.7036,0.5186,0
9094678,0.9914,0.0378,0.0142,0.1244,0.1965,-0.7498,0.1454,0
9094844,0.9914,0.0377,0.0142,0.1246,0.0809,-0.8805,0.1483,0
9095011,0.9914,0.0377,0.0142,0.1247,0.1027,-0.7890,0.2780,0
9095178,0.9913,0.0377,0.0142,0.1250,0.1171,-0.7288,0.3909,0
9095344,0.9913,0.0376,0.0142,0.1252,0.1681,-0.7487,0.1575,0
9095511,0.9913,0.0376,0.0141,0.1253,0.1340,-0.7545,0.4037,0
9095678,0.9913,0.0375,0.0141,0.1255,0.1515,-0.7791,0.2412,0
9095845,0.9913,0.0375,0.0141,0.1257,0.0873,-0.8552,0.1934,0
9096178,0.9912,0.0374,0.0140,0.1261,0.1595,-0.6516,0.3638,0
9096345,0.9912,0.0374,0.0140,0.1263,0.1297,-0.7842,0.2399,0
9096511,0.9912,0.0373,0.0140,0.1264,0.1024,-0.8843,0.2202,0
9096678,0.9912,0.0373,0.0140,0.1266,0.1379,-0.7309,0.2942,0
9096845,0.9911,0.0372,0.0140,0.1268,0.1937,-0.7046,0.2610,0
9097011,0.9911,0.0372,0.0140,0.1270,0.1170,-0.8116,0.3025,0
9097178,0.9911,0.0371,0.0139,0.1272,0.0848,-0.7857,0.2659,0
9097345,0.9911,0.0371,0.0139,0.1273,0.0999,-0.7343,0.2313,0
9097678,0.9910,0.0370,0.0139,0.1277,0.1540,-0.7679,0.3057,0
9097845,0.9910,0.0370,0.0139,0.1279,0.1412,-0.7012,0.2934,0
9098011,0.9910,0.0369,0.0138,0.1281,0.1169,-0.7938,0.2364,0
9098178,0.9910,0.0369,0.0138,0.1282,0.0985,-0.8085,0.2337,0
9098345,0.9909,0.0368,0.0138,0.1284,0.1327,-0.7147,0.2986,0
9098511,0.9909,0.0368,0.0138,0.1286,0.1625,-0.6892,0.3122,0
9098678,0.9909,0.0367,0.0138,0.1288,0.1320,-0.8001,0.2124,0
9098845,0.9909,0.0367,0.0137,0.1289,0.1064,-0.7942,0.2941,0
9099011,0.9909,0.0366,0.0137,0.1291,0.1262,-0.7075,0.2488,0
9099178,0.9908,0.0366,0.0137,0.1293,0.1299,-0.7457,0.2983,0
9099345,0.9908,0.0365,0.0137,0.1295,0.1220,-0.7963,0.2759,0
9099511,0.9908,0.0365,0.0136,0.1296,0.1153,-0.7242,0.2475,0
9099678,0.9908,0.0364,0.0136,0.1298,0.1051,-0.7323,0.2668,0
9099845,0.9908,0.0364,0.0136,0.1300,0.1101,-0.7691,0.2459,0
9100011,0.9907,0.0363,0.0136,0.1302,0.1148,-0.7388,0.3091,0
9100345,0.9907,0.0362,0.0135,0.1305,0.1378,-0.7851,0.3000,0
9100511,0.9907,0.0362,0.0135,0.1307,0.1307,-0.7831,0.1723,0
9100678,0.9907,0.0361,0.0135,0.1308,0.1328,-0.7110,0.2781,0
9100845,0.9906,0.0361,0.0135,0.1310,0.1056,-0.7246,0.3431,0
9101178,0.9906,0.0360,0.0134,0.1314,0.1186,-0.7388,0.2912,0
9101345,0.9906,0.0359,0.0134,0.1315,0.1365,-0.7360,0.3351,0
9101845,0.9905,0.0358,0.0133,0.1321,0.0979,-0.7123,0.3097,0
9102011,0.9905,0.0357,0.0133,0.1322,0.0891,-0.7292,0.2467,0
9102178,0.9905,0.0357,0.0133,0.1324,0.1137,-0.7460,0.2353,0
9102678,0.9904,0.0355,0.0132,0.1329,0.1284,-0.7523,0.2342,0
9102845,0.9904,0.0355,0.0132,0.1331,0.1157,-0.7307,0.2952,0
9103011,0.9904,0.0354,0.0132,0.1332,0.1074,-0.7126,0.3043,0
9103345,0.9903,0.0353,0.0132,0.1336,0.1291,-0.7532,0.2812,0
9103511,0.9903,0.0352,0.0132,0.1337,0.1213,-0.7247,0.2760,0
9103678,0.9903,0.0352,0.0131,0.1339,0.1269,-0.7220,0.3000,0
9103845,0.9903,0.0351,0.0131,0.1341,0.1008,-0.7309,0.2452,0
9104011,0.9902,0.0351,0.0131,0.1342,0.1027,-0.7149,0.2716,0
9104178,0.9902,0.0350,0.0131,0.1344,0.1081,-0.7106,0.2857,0
9104345,0.9902,0.0350,0.0130,0.1346,0.1283,-0.7443,0.2493,0
9104511,0.9902,0.0349,0.0130,0.1347,0.1287,-0.7225,0.2465,0
9104845,0.9901,0.0348,0.0130,0.1351,0.0908,-0.7279,0.2812,0
9105011,0.9901,0.0347,0.0130,0.1352,0.0919,-0.7295,0.2595,0
9105178,0.9901,0.0347,0.0129,0.1354,0.0971,-0.7018,0.2756,0
9105345,0.9901,0.0346,0.0129,0.1355,0.1217,-0.7165,0.2780,0
9105511,0.9901,0.0346,0.0129,0.1357,0.1345,-0.7422,0.2203,0
9105678,0.9900,0.0345,0.0129,0.1359,0.1097,-0.7252,0.3022,0
9106011,0.9900,0.0344,0.0128,0.1362,0.0831,-0.7131,0.2591,0
9106178,0.9900,0.0343,0.0128,0.1364,0.0974,-0.7153,0.2772,0
9106345,0.9900,0.0343,0.0128,0.1365,0.1056,-0.7077,0.2762,0
9106511,0.9899,0.0342,0.0128,0.1367,0.1247,-0.7302,0.2545,0
9106678,0.9899,0.0342,0.0128,0.1368,0.1018,-0.7231,0.2359,0
9106845,0.9899,0.0341,0.0127,0.1370,0.0918,-0.6900,0.2920,0
9107011,0.9899,0.0341,0.0127,0.1372,0.1030,-0.6897,0.2889,0
9107178,0.9899,0.0340,0.0127,0.1373,0.0938,-0.7261,0.2739,0
9107345,0.9898,0.0340,0.0127,0.1375,0.1018,-0.7249,0.2922,0
9107511,0.9898,0.0339,0.0127,0.1376,0.1291,-0.7032,0.2599,0
9107678,0.9898,0.0339,0.0127,0.1378,0.1086,-0.7054,0.2698,0
9107845,0.9898,0.0338,0.0126,0.1379,0.0782,-0.6998,0.2814,0
9108345,0.9897,0.0336,0.0126,0.1384,0.1065,-0.7237,0.2692,0
9108511,0.9897,0.0336,0.0126,0.1386,0.1375,-0.6965,0.2891,0
9108678,0.9897,0.0335,0.0125,0.1387,0.1113,-0.6986,0.2802,0
9109011,0.9897,0.0334,0.0125,0.1390,0.0750,-0.6843,0.2518,0
9109178,0.9896,0.0333,0.0125,0.1391,0.0925,-0.6624,0.3076,0
9109345,0.9896,0.0333,0.0125,0.1393,0.0987,-0.6871,0.3031,0
9109678,0.9896,0.0331,0.0124,0.1396,0.0993,-0.6813,0.2803,0
9109845,0.9896,0.0331,0.0124,0.1397,0.0944,-0.6882,0.2939,0
9110178,0.9895,0.0330,0.0124,0.1400,0.0814,-0.6925,0.2802,0
9110345,0.9895,0.0329,0.0123,0.1402,0.1056,-0.6911,0.2839,0
9110511,0.9895,0.0328,0.0123,0.1403,0.1160,-0.6996,0.2492,0
9110678,0.9895,0.0328,0.0123,0.1405,0.1178,-0.6889,0.2863,0
9110845,0.9894,0.0327,0.0123,0.1406,0.0906,-0.6802,0.3135,0
9111011,0.9894,0.0326,0.0123,0.1408,0.0747,-0.6808,0.2797,0
9111178,0.9894,0.0326,0.0122,0.1409,0.0722,-0.6778,0.2567,0
9111345,0.9894,0.0325,0.0122,0.1411,0.0870,-0.6867,0.2827,0
9111511,0.9894,0.0325,0.0122,0.1412,0.1115,-0.6603,0.2819,0
9111678,0.9893,0.0324,0.0122,0.1414,0.1084,-0.6821,0.2642,0
9111845,0.9893,0.0323,0.0121,0.1415,0.0850,-0.7029,0.3042,0
9112011,0.9893,0.0323,0.0121,0.1417,0.0597,-0.6726,0.2631,0
9112345,0.9893,0.0321,0.0121,0.1420,0.0969,-0.6991,0.3339,0
9112512,0.9893,0.0321,0.0121,0.1421,0.0967,-0.6802,0.2592,0
9112678,0.9892,0.0320,0.0121,0.1423,0.0858,-0.6576,0.2383,0
9112845,0.9892,0.0320,0.0120,0.1424,0.0918,-0.6844,0.3373,0
9113178,0.9892,0.0318,0.0120,0.1427,0.0885,-0.6521,0.2792,0
9113345,0.9892,0.0318,0.0120,0.1429,0.0723,-0.6816,0.2911,0
9113845,0.9891,0.0316,0.0119,0.1433,0.1024,-0.6388,0.3207,0
9114012,0.9891,0.0315,0.0119,0.1434,0.0759,-0.6783,0.2681,0
9114178,0.9891,0.0315,0.0119,0.1436,0.0792,-0.6850,0.2429,0
9114678,0.9890,0.0313,0.0118,0.1440,0.0693,-0.6573,0.2176,0
9114845,0.9890,0.0312,0.0118,0.1441,0.0774,-0.6698,0.2949,0
9115345,0.9889,0.0311,0.0118,0.1446,0.0597,-0.6751,0.2331,0
9115512,0.9889,0.0310,0.0117,0.1447,0.0612,-0.6512,0.3853,0
9115678,0.9889,0.0310,0.0117,0.1448,0.0844,-0.6529,0.2270,0
9115845,0.9889,0.0309,0.0117,0.1450,0.0897,-0.6466,0.2108,0
9116012,0.9889,0.0308,0.0117,0.1451,0.0882,-0.6325,0.3547,0
9116178,0.9888,0.0308,0.0116,0.1452,0.0599,-0.6452,0.2908,0
9116845,0.9888,0.0305,0.0116,0.1458,0.0856,-0.6742,0.2468,0
9117012,0.9888,0.0304,0.0116,0.1460,0.0704,-0.6853,0.3072,0
9117178,0.9887,0.0304,0.0116,0.1461,0.0653,-0.6053,0.3230,0
9117345,0.9887,0.0303,0.0115,0.1462,0.0822,-0.6144,0.2622,0
9117512,0.9887,0.0303,0.0115,0.1463,0.0768,-0.6800,0.2611,0
9117678,0.9887,0.0302,0.0115,0.1465,0.0661,-0.6241,0.3136,0
9118012,0.9886,0.0301,0.0115,0.1467,0.0731,-0.6557,0.2685,0
9118178,0.9886,0.0300,0.0114,0.1469,0.0823,-0.6493,0.2954,0
9118345,0.9886,0.0300,0.0114,0.1470,0.0740,-0.5870,0.2892,0
9118845,0.9886,0.0298,0.0114,0.1474,0.0906,-0.6019,0.2968,0
9119512,0.9885,0.0296,0.0113,0.1479,0.0698,-0.5989,0.2769,0
9120178,0.9884,0.0293,0.0112,0.1484,0.0615,-0.6336,0.2864,0
9120345,0.9884,0.0293,0.0112,0.1485,0.0630,-0.6573,0.2908,0
9121012,0.9883,0.0290,0.0112,0.1490,0.0705,-0.6283,0.2568,0
9121678,0.9883,0.0288,0.0111,0.1496,0.0655,-0.6109,0.2980,0
9121845,0.9883,0.0287,0.0111,0.1497,0.0747,-0.5958,0.2934,0
9122178,0.9882,0.0286,0.0111,0.1499,0.0844,-0.6034,0.3309,0
9122345,0.9882,0.0285,0.0110,0.1501,0.0755,-0.5981,0.3004,0
9122512,0.9882,0.0285,0.0110,0.1502,0.0559,-0.6125,0.2466,0
9122678,0.9882,0.0284,0.0110,0.1503,0.0679,-0.6036,0.2851,0
9122845,0.9881,0.0284,0.0110,0.1505,0.0616,-0.5865,0.2934,0
9123012,0.9881,0.0283,0.0110,0.1506,0.0479,-0.6036,0.2667,0
9123178,0.9881,0.0282,0.0110,0.1507,0.0506,-0.6075,0.3167,0
9123345,0.9881,0.0282,0.0110,0.1508,0.0637,-0.6014,0.3038,0
9123678,0.9881,0.0280,0.0109,0.1511,0.0708,-0.6046,0.3166,0
9123845,0.9880,0.0280,0.0109,0.1512,0.0434,-0.5984,0.2699,0
9124012,0.9880,0.0279,0.0109,0.1513,0.0578,-0.5808,0.2782,0
9124345,0.9880,0.0278,0.0109,0.1516,0.0666,-0.5914,0.3054,0
9124512,0.9880,0.0277,0.0108,0.1517,0.0728,-0.5703,0.2694,0
9124678,0.9880,0.0277,0.0108,0.1518,0.0665,-0.5958,0.2891,0
9124845,0.9879,0.0276,0.0108,0.1520,0.0433,-0.5994,0.3016,0
9125012,0.9879,0.0275,0.0108,0.1521,0.0466,-0.5817,0.2613,0
9125178,0.9879,0.0275,0.0108,0.1522,0.0560,-0.5867,0.2862,0
9125345,0.9879,0.0274,0.0107,0.1523,0.0587,-0.5969,0.2600,0
9125512,0.9879,0.0274,0.0107,0.1525,0.0563,-0.5783,0.2648,0
9125678,0.9879,0.0273,0.0107,0.1526,0.0530,-0.5720,0.2868,0
9125845,0.9878,0.0272,0.0107,0.1527,0.0487,-0.5862,0.3098,0
9126012,0.9878,0.0272,0.0107,0.1528,0.0476,-0.5770,0.2547,0
9126178,0.9878,0.0271,0.0106,0.1529,0.0592,-0.5758,0.2874,0
9126345,0.9878,0.0271,0.0106,0.1531,0.0492,-0.5840,0.2831,0
9126512,0.9878,0.0270,0.0106,0.1532,0.0689,-0.5769,0.2800,0
9126678,0.9878,0.0269,0.0106,0.1533,0.0770,-0.5510,0.2751,0
9126845,0.9877,0.0269,0.0106,0.1534,0.0484,-0.5512,0.3192,0
9127345,0.9877,0.0267,0.0105,0.1538,0.0433,-0.5394,0.2981,0
9127512,0.9877,0.0266,0.0105,0.1539,0.0599,-0.5544,0.3059,0
9127678,0.9877,0.0266,0.0105,0.1540,0.0578,-0.5870,0.2925,0
9127845,0.9876,0.0265,0.0105,0.1542,0.0378,-0.5658,0.3019,0
9128012,0.9876,0.0264,0.0105,0.1543,0.0416,-0.5681,0.2799,0
9128178,0.9876,0.0264,0.0104,0.1544,0.0359,-0.5668,0.2911,0
9128512,0.9876,0.0262,0.0104,0.1546,0.0465,-0.5623,0.2842,0
9128678,0.9876,0.0262,0.0104,0.1548,0.0341,-0.5682,0.2921,0
9128845,0.9875,0.0261,0.0104,0.1549,0.0320,-0.5664,0.2873,0
9129012,0.9875,0.0261,0.0104,0.1550,0.0446,-0.5557,0.2884,0
9129179,0.9875,0.0260,0.0104,0.1551,0.0383,-0.5433,0.2926,0
9129345,0.9875,0.0260,0.0103,0.1552,0.0420,-0.5700,0.2762,0
9129512,0.9875,0.0259,0.0103,0.1553,0.0449,-0.5464,0.2696,0
9129679,0.9875,0.0258,0.0103,0.1554,0.0471,-0.5347,0.2836,0
9129845,0.9874,0.0258,0.0103,0.1555,0.0453,-0.5551,0.2796,0
9130012,0.9874,0.0257,0.0103,0.1556,0.0324,-0.5487,0.2352,0
9130179,0.9874,0.0257,0.0103,0.1558,0.0353,-0.5604,0.3048,0
9130345,0.9874,0.0256,0.0103,0.1559,0.0422,-0.5527,0.3181,0
9130512,0.9874,0.0256,0.0103,0.1560,0.0338,-0.5287,0.2530,0
9130845,0.9873,0.0254,0.0102,0.1562,0.0449,-0.5466,0.2905,0
9131012,0.9873,0.0254,0.0102,0.1564,0.0369,-0.5557,0.2674,0
9131512,0.9873,0.0252,0.0102,0.1567,0.0468,-0.5351,0.2717,0
9131679,0.9873,0.0252,0.0102,0.1568,0.0238,-0.5337,0.2994,0
9131845,0.9872,0.0251,0.0102,0.1570,0.0454,-0.5517,0.2868,0
9132179,0.9872,0.0250,0.0102,0.1572,0.0437,-0.5490,0.2890,0
9132345,0.9872,0.0250,0.0102,0.1573,0.0465,-0.5294,0.2680,0
9132512,0.9872,0.0249,0.0102,0.1574,0.0494,-0.5282,0.2619,0
9132679,0.9872,0.0248,0.0101,0.1575,0.0336,-0.5476,0.3279,0
9132845,0.9871,0.0248,0.0101,0.1576,0.0321,-0.5324,0.2957,0
9133012,0.9871,0.0247,0.0101,0.1577,0.0336,-0.5292,0.3043,0
9133179,0.9871,0.0247,0.0101,0.1578,0.0489,-0.5349,0.2789,0
9133345,0.9871,0.0246,0.0101,0.1580,0.0492,-0.5366,0.2599,0
9133679,0.9871,0.0245,0.0101,0.1582,0.0210,-0.5276,0.3140,0
9133845,0.9870,0.0244,0.0101,0.1583,0.0300,-0.5233,0.2680,0
9134012,0.9870,0.0243,0.0101,0.1584,0.0315,-0.5166,0.2983,0
9134179,0.9870,0.0243,0.0101,0.1585,0.0366,-0.5216,0.3065,0
9134345,0.9870,0.0242,0.0101,0.1586,0.0392,-0.5134,0.2802,0
9134512,0.9870,0.0242,0.0100,0.1587,0.0379,-0.5220,0.2974,0
9134679,0.9870,0.0241,0.0100,0.1588,0.0232,-0.5231,0.2966,0
9134845,0.9869,0.0241,0.0100,0.1590,0.0222,-0.5245,0.2689,0
9135012,0.9869,0.0240,0.0100,0.1591,0.0432,-0.5126,0.2913,0
9135179,0.9869,0.0239,0.0100,0.1592,0.0311,-0.5179,0.3012,0
9135345,0.9869,0.0239,0.0100,0.1593,0.0399,-0.5043,0.2627,0
9135512,0.9869,0.0238,0.0100,0.1594,0.0266,-0.5243,0.2837,0
9135679,0.9869,0.0238,0.0100,0.1595,0.0400,-0.5174,0.3084,0
9135845,0.9868,0.0237,0.0100,0.1596,0.0198,-0.5080,0.2670,0
9136012,0.9868,0.0236,0.0099,0.1597,0.0285,-0.4991,0.2857,0
9136345,0.9868,0.0235,0.0099,0.1599,0.0411,-0.5012,0.2999,0
9136512,0.9868,0.0235,0.0099,0.1601,0.0327,-0.4926,0.2459,0
9136679,0.9868,0.0234,0.0099,0.1602,0.0243,-0.5100,0.2893,0
9136845,0.9867,0.0234,0.0099,0.1603,0.0144,-0.5175,0.2986,0
9137012,0.9867,0.0233,0.0099,0.1604,0.0362,-0.4926,0.2638,0
9137179,0.9867,0.0233,0.0099,0.1605,0.0403,-0.4898,0.2816,0
9137345,0.9867,0.0232,0.0099,0.1606,0.0341,-0.5023,0.2910,0
9137512,0.9867,0.0232,0.0099,0.1607,0.0327,-0.5158,0.3067,0
9137845,0.9866,0.0230,0.0099,0.1610,0.0284,-0.4998,0.2888,0
9138012,0.9866,0.0230,0.0098,0.1611,0.0288,-0.4950,0.2830,0
9138179,0.9866,0.0229,0.0098,0.1612,0.0117,-0.5065,0.3167,0
9138345,0.9866,0.0229,0.0098,0.1613,0.0274,-0.4878,0.2728,0
9138512,0.9866,0.0228,0.0098,0.1614,0.0256,-0.4971,0.2858,0
9138679,0.9866,0.0227,0.0098,0.1615,0.0277,-0.5040,0.3310,0
9138845,0.9865,0.0227,0.0098,0.1616,0.0204,-0.4965,0.3027,0
9139012,0.9865,0.0226,0.0098,0.1617,0.0179,-0.4885,0.2646,0
9139179,0.9865,0.0226,0.0098,0.1618,0.0110,-0.4839,0.3181,0
9139845,0.9864,0.0224,0.0097,0.1623,0.0328,-0.5010,0.2593,0
9140012,0.9864,0.0223,0.0097,0.1624,0.0183,-0.4898,0.2852,0
9140179,0.9864,0.0222,0.0097,0.1625,0.0251,-0.4760,0.3153,0
9140512,0.9864,0.0221,0.0097,0.1627,0.0314,-0.4937,0.2825,0
9140679,0.9864,0.0221,0.0097,0.1628,0.0192,-0.4791,0.3156,0
9140845,0.9863,0.0220,0.0097,0.1629,0.0222,-0.4937,0.2781,0
9141012,0.9863,0.0219,0.0096,0.1630,0.0352,-0.4841,0.2750,0
9141179,0.9863,0.0219,0.0096,0.1631,0.0165,-0.4722,0.3110,0
9141345,0.9863,0.0218,0.0096,0.1632,0.0097,-0.4699,0.2441,0
9141512,0.9863,0.0218,0.0096,0.1633,0.0015,-0.5086,0.3557,0
9141679,0.9863,0.0217,0.0096,0.1635,0.0174,-0.4773,0.2961,0
9141845,0.9862,0.0217,0.0096,0.1636,0.0219,-0.4487,0.2611,0
9142012,0.9862,0.0216,0.0096,0.1637,0.0050,-0.4898,0.3262,0
9142179,0.9862,0.0216,0.0096,0.1638,0.0282,-0.4969,0.3006,0
9142345,0.9862,0.0215,0.0096,0.1639,0.0392,-0.4513,0.2636,0
9142845,0.9861,0.0214,0.0095,0.1642,0.0164,-0.4694,0.2754,0
9143012,0.9861,0.0213,0.0095,0.1643,0.0158,-0.4799,0.3204,0
9143179,0.9861,0.0212,0.0095,0.1644,0.0291,-0.4677,0.3193,0
9143512,0.9861,0.0211,0.0095,0.1647,0.0274,-0.4758,0.3170,0
9143679,0.9861,0.0211,0.0095,0.1647,-0.0031,-0.4692,0.3161,0
9143845,0.9860,0.0210,0.0095,0.1649,0.0090,-0.4588,0.2707,0
9144179,0.9860,0.0209,0.0095,0.1651,0.0225,-0.4788,0.3290,0
9144345,0.9860,0.0209,0.0095,0.1652,0.0434,-0.4612,0.2540,0
9144512,0.9860,0.0208,0.0094,0.1653,0.0244,-0.4592,0.2807,0
9145012,0.9859,0.0207,0.0094,0.1656,0.0140,-0.4590,0.2707,0
9145179,0.9859,0.0206,0.0094,0.1657,0.0294,-0.4630,0.3011,0
9145345,0.9859,0.0205,0.0094,0.1658,0.0228,-0.4617,0.2754,0
9145679,0.9859,0.0205,0.0094,0.1661,0.0028,-0.4510,0.2844,0
9145846,0.9858,0.0204,0.0094,0.1662,0.0001,-0.4548,0.2995,0
9146012,0.9858,0.0203,0.0094,0.1663,0.0032,-0.4455,0.2786,0
9146179,0.9858,0.0203,0.0093,0.1664,0.0333,-0.4447,0.3010,0
9146346,0.9858,0.0202,0.0093,0.1665,0.0409,-0.4335,0.2937,0
9146512,0.9858,0.0202,0.0093,0.1666,0.0123,-0.4604,0.2528,0
9147179,0.9857,0.0200,0.0093,0.1670,0.0450,-0.4430,0.3164,0
9147346,0.9857,0.0199,0.0093,0.1671,0.0186,-0.4377,0.3141,0
9147512,0.9857,0.0199,0.0093,0.1672,-0.0121,-0.4485,0.2541,0
9147679,0.9857,0.0198,0.0093,0.1673,-0.0124,-0.3929,0.3588,0
9147846,0.9856,0.0198,0.0093,0.1674,-0.0011,-0.4532,0.2999,0
9148012,0.9856,0.0197,0.0093,0.1675,0.0157,-0.4559,0.2378,0
9148346,0.9856,0.0197,0.0093,0.1677,0.0114,-0.4442,0.2833,0
9148512,0.9856,0.0196,0.0092,0.1678,-0.0172,-0.4380,0.2585,0
9148679,0.9856,0.0195,0.0092,0.1679,-0.0117,-0.4102,0.3063,0
9149179,0.9855,0.0194,0.0092,0.1683,0.0359,-0.4145,0.2653,0
9149346,0.9855,0.0194,0.0092,0.1684,0.0273,-0.4318,0.3158,0
9149846,0.9854,0.0192,0.0092,0.1687,-0.0118,-0.4312,0.3080,0
9150012,0.9854,0.0192,0.0092,0.1688,0.0075,-0.4290,0.2719,0
9150346,0.9854,0.0191,0.0091,0.1690,0.0062,-0.4365,0.3199,0
9150512,0.9854,0.0190,0.0091,0.1691,-0.0148,-0.4175,0.3120,0
9150679,0.9854,0.0190,0.0091,0.1692,-0.0092,-0.3992,0.2914,0
9151346,0.9853,0.0188,0.0091,0.1696,0.0079,-0.4269,0.2714,0
9151512,0.9853,0.0188,0.0091,0.1697,-0.0048,-0.4047,0.2836,0
9151679,0.9853,0.0187,0.0090,0.1698,-0.0211,-0.4116,0.2773,0
9151846,0.9852,0.0187,0.0090,0.1699,0.0097,-0.3770,0.2971,0
9152012,0.9852,0.0186,0.0090,0.1700,0.0745,-0.3678,0.3707,0
9152179,0.9852,0.0186,0.0091,0.1701,0.0244,-0.4614,0.2029,0
9152512,0.9852,0.0185,0.0090,0.1703,-0.0371,-0.3987,0.3504,0
9152679,0.9852,0.0184,0.0090,0.1704,-0.0136,-0.3759,0.3010,0
9152846,0.9851,0.0184,0.0090,0.1705,0.0034,-0.4176,0.2804,0
9153346,0.9851,0.0183,0.0090,0.1708,0.0080,-0.4516,0.2423,0
9153512,0.9851,0.0182,0.0090,0.1709,-0.0280,-0.3503,0.3527,0
9153679,0.9851,0.0182,0.0089,0.1710,-0.0311,-0.3503,0.3195,0
9154012,0.9850,0.0181,0.0089,0.1713,0.0140,-0.4480,0.2666,0
9154179,0.9850,0.0180,0.0089,0.1714,0.0472,-0.3641,0.2900,0
9154346,0.9850,0.0180,0.0089,0.1715,0.0266,-0.3925,0.2936,0
9154679,0.9850,0.0179,0.0089,0.1717,-0.0613,-0.3878,0.2893,0
9154846,0.9849,0.0178,0.0089,0.1718,-0.0145,-0.3678,0.2649,0
9155012,0.9849,0.0178,0.0089,0.1719,0.0385,-0.4309,0.2968,0
9155179,0.9849,0.0177,0.0089,0.1720,0.0642,-0.4079,0.2840,0
9155346,0.9849,0.0177,0.0089,0.1721,-0.0062,-0.3807,0.2635,0
9155512,0.9849,0.0176,0.0089,0.1722,-0.0325,-0.4351,0.3065,0
9155679,0.9848,0.0176,0.0089,0.1723,-0.0358,-0.4275,0.2823,0
9155846,0.9848,0.0176,0.0089,0.1724,-0.0092,-0.3402,0.2656,0
9156012,0.9848,0.0175,0.0088,0.1725,0.0231,-0.3781,0.3051,0
9156179,0.9848,0.0175,0.0088,0.1726,0.0365,-0.4389,0.2796,0
9156346,0.9848,0.0174,0.0088,0.1727,-0.0060,-0.4097,0.2740,0
9156512,0.9848,0.0174,0.0088,0.1728,-0.0445,-0.3686,0.3296,0
9156679,0.9847,0.0173,0.0088,0.1729,-0.0365,-0.3813,0.3042,0
9156846,0.9847,0.0173,0.0088,0.1730,0.0002,-0.3768,0.2597,0
9157012,0.9847,0.0172,0.0088,0.1731,0.0265,-0.3772,0.3097,0
9157179,0.9847,0.0172,0.0088,0.1732,0.0178,-0.4135,0.2800,0
9157346,0.9847,0.0172,0.0087,0.1733,0.0099,-0.4201,0.2542,0
9157679,0.9846,0.0171,0.0087,0.1736,-0.0418,-0.3734,0.3436,0
9157846,0.9846,0.0170,0.0087,0.1737,-0.0225,-0.3959,0.2379,0
9158179,0.9846,0.0169,0.0087,0.1739,0.0133,-0.3757,0.3283,0
9158346,0.9846,0.0169,0.0087,0.1740,-0.0030,-0.4036,0.3089,0
9158512,0.9845,0.0169,0.0087,0.1741,-0.0309,-0.4131,0.3017,0
9159679,0.9844,0.0165,0.0087,0.1748,-0.0176,-0.3621,0.3290,0
9159846,0.9844,0.0165,0.0087,0.1749,-0.0099,-0.3609,0.2843,0
9160012,0.9844,0.0165,0.0087,0.1750,-0.0032,-0.4037,0.2984,0
9160346,0.9844,0.0164,0.0087,0.1752,-0.0078,-0.3517,0.3028,0
9160512,0.9843,0.0163,0.0087,0.1753,-0.0311,-0.3631,0.3150,0
9160679,0.9843,0.0163,0.0087,0.1754,-0.0446,-0.4123,0.2923,0
9161846,0.9842,0.0160,0.0086,0.1762,-0.0320,-0.3596,0.2521,0
9162012,0.9842,0.0159,0.0086,0.1763,-0.0111,-0.3284,0.3202,0
9162179,0.9842,0.0159,0.0086,0.1764,0.0010,-0.3549,0.3126,0
9162346,0.9841,0.0159,0.0086,0.1765,0.0007,-0.4008,0.2980,0
9162513,0.9841,0.0158,0.0086,0.1766,-0.0087,-0.3542,0.3067,0
9162679,0.9841,0.0158,0.0086,0.1767,-0.0131,-0.3506,0.2805,0
9162846,0.9841,0.0157,0.0086,0.1768,-0.0314,-0.3641,0.2801,0
9163013,0.9841,0.0157,0.0086,0.1769,-0.0171,-0.3462,0.3194,0
9163179,0.9840,0.0157,0.0086,0.1771,-0.0053,-0.3559,0.2957,0
9163846,0.9840,0.0155,0.0086,0.1775,-0.0324,-0.3470,0.2850,0
9164013,0.9839,0.0155,0.0086,0.1776,-0.0233,-0.3798,0.3061,0
9164179,0.9839,0.0154,0.0085,0.1777,-0.0059,-0.3465,0.3040,0
9164513,0.9839,0.0153,0.0085,0.1779,-0.0082,-0.3668,0.3054,0
9164679,0.9839,0.0153,0.0086,0.1780,-0.0126,-0.3574,0.2915,0
9164846,0.9839,0.0153,0.0086,0.1781,-0.0201,-0.3324,0.3055,0
9165013,0.9838,0.0152,0.0085,0.1782,-0.0445,-0.3369,0.3213,0
9165179,0.9838,0.0152,0.0085,0.1784,-0.0264,-0.3607,0.2843,0
9165346,0.9838,0.0151,0.0085,0.1785,-0.0148,-0.3621,0.2876,0
9165513,0.9838,0.0151,0.0085,0.1786,-0.0001,-0.3539,0.3188,0
9165679,0.9838,0.0151,0.0085,0.1787,-0.0081,-0.3588,0.2827,0
9165846,0.9837,0.0150,0.0085,0.1788,-0.0231,-0.3443,0.2819,0
9166013,0.9837,0.0150,0.0085,0.1789,-0.0040,-0.3418,0.3284,0
9166179,0.9837,0.0150,0.0085,0.1790,-0.0196,-0.3649,0.2896,0
9166679,0.9836,0.0148,0.0085,0.1793,-0.0122,-0.3373,0.2841,0
9166846,0.9836,0.0148,0.0085,0.1794,-0.0131,-0.3661,0.2838,0
9167013,0.9836,0.0148,0.0085,0.1795,-0.0242,-0.3552,0.3232,0
9167179,0.9836,0.0147,0.0085,0.1797,-0.0298,-0.3371,0.2735,0
9167513,0.9835,0.0146,0.0085,0.1799,-0.0109,-0.3568,0.3244,0
9168179,0.9835,0.0145,0.0085,0.1803,-0.0137,-0.3069,0.2975,0
9168346,0.9835,0.0144,0.0085,0.1804,-0.0105,-0.3365,0.3231,0
9168679,0.9834,0.0144,0.0085,0.1806,-0.0346,-0.3488,0.2482,0
9168846,0.9834,0.0143,0.0085,0.1807,-0.0231,-0.3384,0.3264,0
9169013,0.9834,0.0143,0.0085,0.1808,-0.0125,-0.3334,0.3056,0
9169179,0.9834,0.0143,0.0084,0.1809,-0.0223,-0.3252,0.2947,0
9169346,0.9833,0.0142,0.0084,0.1810,-0.0311,-0.3281,0.2892,0
9169513,0.9833,0.0142,0.0084,0.1811,-0.0252,-0.3501,0.2826,0
9169679,0.9833,0.0142,0.0084,0.1812,-0.0128,-0.3435,0.2915,0
9169846,0.9833,0.0141,0.0084,0.1813,-0.0034,-0.3357,0.3015,0
9170013,0.9833,0.0141,0.0084,0.1814,-0.0130,-0.3234,0.3247,0
9170179,0.9832,0.0140,0.0085,0.1816,-0.0296,-0.3301,0.3240,0
9170346,0.9832,0.0140,0.0084,0.1817,-0.0298,-0.3570,0.2801,0
9170513,0.9832,0.0140,0.0084,0.1818,-0.0184,-0.3331,0.2594,0
9171179,0.9831,0.0138,0.0084,0.1822,-0.0375,-0.3314,0.3407,0
9171346,0.9831,0.0138,0.0084,0.1823,-0.0297,-0.3457,0.2716,0
9171513,0.9831,0.0137,0.0084,0.1824,-0.0084,-0.3207,0.3145,0
9171679,0.9831,0.0137,0.0084,0.1825,-0.0168,-0.3137,0.3241,0
9171846,0.9831,0.0137,0.0084,0.1826,0.0232,-0.3014,0.2812,0
9172013,0.9830,0.0136,0.0084,0.1827,-0.0239,-0.3746,0.2195,0
9172346,0.9830,0.0136,0.0084,0.1829,-0.0403,-0.3116,0.3335,0
9172513,0.9830,0.0135,0.0084,0.1831,-0.0290,-0.3525,0.2485,0
9173179,0.9829,0.0134,0.0084,0.1835,-0.0369,-0.3291,0.3253,0
9173346,0.9829,0.0134,0.0084,0.1836,-0.0179,-0.3180,0.2593,0
9173513,0.9829,0.0133,0.0084,0.1837,-0.0309,-0.3187,0.2931,0
9173846,0.9828,0.0133,0.0084,0.1839,-0.0182,-0.3147,0.3069,0
9174013,0.9828,0.0132,0.0084,0.1840,-0.0155,-0.3582,0.1897,0
9174179,0.9828,0.0132,0.0084,0.1841,-0.0198,-0.3015,0.3541,0
9174346,0.9828,0.0132,0.0084,0.1843,-0.0280,-0.3219,0.3011,0
9174513,0.9827,0.0131,0.0083,0.1844,-0.0308,-0.3109,0.2627,0
9174679,0.9827,0.0131,0.0083,0.1845,-0.0407,-0.3017,0.3171,0
9175346,0.9826,0.0129,0.0083,0.1849,-0.0391,-0.3239,0.3470,0
9175513,0.9826,0.0129,0.0083,0.1850,0.0013,-0.3294,0.3023,0
9175679,0.9826,0.0129,0.0083,0.1851,-0.0145,-0.3178,0.2683,0
9175846,0.9826,0.0129,0.0083,0.1853,-0.0316,-0.2991,0.3112,0
9176013,0.9826,0.0128,0.0083,0.1854,-0.0484,-0.2885,0.3429,0
9176179,0.9825,0.0128,0.0083,0.1855,-0.0250,-0.3235,0.3013,0
9176513,0.9825,0.0127,0.0083,0.1857,-0.0225,-0.3078,0.2946,0
9176679,0.9825,0.0127,0.0083,0.1858,-0.0192,-0.3095,0.2684,0
9176846,0.9824,0.0126,0.0083,0.1859,-0.0339,-0.3203,0.3283,0
9177346,0.9824,0.0125,0.0083,0.1863,-0.0260,-0.2921,0.3284,0
9177513,0.9824,0.0125,0.0083,0.1864,-0.0044,-0.3252,0.3166,0
9177679,0.9823,0.0125,0.0083,0.1865,-0.0100,-0.3135,0.2290,0
9178013,0.9823,0.0124,0.0083,0.1867,-0.0218,-0.2896,0.3375,0
9178179,0.9823,0.0124,0.0083,0.1868,-0.0557,-0.3319,0.2724,0
9178679,0.9822,0.0123,0.0083,0.1871,0.0001,-0.2964,0.2806,0
9178846,0.9822,0.0122,0.0083,0.1872,-0.0222,-0.3048,0.3133,0
9179013,0.9822,0.0122,0.0083,0.1873,-0.0294,-0.3045,0.2860,0
9179513,0.9821,0.0121,0.0083,0.1877,-0.0248,-0.3105,0.2886,0
9179680,0.9821,0.0121,0.0083,0.1878,-0.0100,-0.3034,0.2480,0
9179846,0.9821,0.0120,0.0083,0.1879,-0.0200,-0.3058,0.3253,0
9180680,0.9820,0.0119,0.0083,0.1885,-0.0164,-0.2739,0.2992,0
9180846,0.9820,0.0118,0.0083,0.1886,-0.0034,-0.2836,0.3068,0
9181013,0.9819,0.0118,0.0083,0.1887,-0.0229,-0.3148,0.2633,0
9181180,0.9819,0.0118,0.0083,0.1888,-0.0492,-0.2943,0.2995,0
9181346,0.9819,0.0117,0.0083,0.1889,-0.0387,-0.2900,0.2895,0
9181513,0.9819,0.0117,0.0083,0.1890,-0.0135,-0.2883,0.2861,0
9181680,0.9818,0.0117,0.0083,0.1891,-0.0077,-0.2588,0.3082,0
9181846,0.9818,0.0117,0.0083,0.1892,-0.0113,-0.2721,0.3092,0
9182013,0.9818,0.0116,0.0083,0.1894,-0.0420,-0.3209,0.2926,0
9182180,0.9818,0.0116,0.0083,0.1895,-0.0349,-0.3172,0.2805,0
9182346,0.9818,0.0116,0.0083,0.1896,-0.0126,-0.2728,0.2902,0
9182513,0.9817,0.0115,0.0083,0.1897,-0.0160,-0.2692,0.2915,0
9182846,0.9817,0.0115,0.0083,0.1899,-0.0347,-0.3070,0.3101,0
9183013,0.9817,0.0114,0.0083,0.1900,-0.0347,-0.2852,0.2801,0
9183180,0.9817,0.0114,0.0083,0.1901,-0.0166,-0.2679,0.3107,0
9183680,0.9816,0.0113,0.0083,0.1905,-0.0481,-0.2838,0.2937,0
9183846,0.9816,0.0113,0.0083,0.1906,-0.0370,-0.2695,0.2876,0
9184013,0.9815,0.0113,0.0083,0.1907,-0.0315,-0.2782,0.3116,0
9184346,0.9815,0.0112,0.0083,0.1909,-0.0376,-0.2910,0.2620,0
9184513,0.9815,0.0112,0.0083,0.1911,-0.0196,-0.2957,0.2845,0
9184846,0.9814,0.0111,0.0083,0.1913,-0.0357,-0.2448,0.2879,0
9185013,0.9814,0.0111,0.0083,0.1914,-0.0427,-0.2807,0.2976,0
9185180,0.9814,0.0111,0.0083,0.1915,-0.0120,-0.3021,0.3139,0
9185346,0.9814,0.0111,0.0083,0.1916,-0.0098,-0.2939,0.3207,0
9185513,0.9813,0.0110,0.0083,0.1917,-0.0215,-0.2664,0.3079,0
9185846,0.9813,0.0110,0.0083,0.1920,-0.0469,-0.2890,0.2970,0
9186013,0.9813,0.0109,0.0083,0.1921,-0.0425,-0.2882,0.3039,0
9186346,0.9812,0.0109,0.0083,0.1923,-0.0138,-0.2614,0.2824,0
9186513,0.9812,0.0109,0.0083,0.1924,-0.0112,-0.2733,0.3029,0
9186680,0.9812,0.0108,0.0083,0.1925,-0.0334,-0.2710,0.3125,0
9187346,0.9811,0.0107,0.0083,0.1930,-0.0072,-0.2710,0.3064,0
9187513,0.9811,0.0107,0.0083,0.1931,-0.0184,-0.2452,0.3143,0
9187680,0.9811,0.0107,0.0083,0.1932,-0.0329,-0.2721,0.2801,0
9187846,0.9810,0.0106,0.0083,0.1933,-0.0533,-0.2759,0.2998,0
9188013,0.9810,0.0106,0.0083,0.1935,-0.0422,-0.2587,0.3277,0
9188180,0.9810,0.0106,0.0083,0.1936,-0.0043,-0.2562,0.3267,0
9188513,0.9809,0.0105,0.0083,0.1938,-0.0074,-0.2707,0.3046,0
9188680,0.9809,0.0105,0.0083,0.1939,-0.0378,-0.2496,0.3017,0
9188846,0.9809,0.0105,0.0083,0.1941,-0.0474,-0.2470,0.2842,0
9189346,0.9808,0.0104,0.0083,0.1944,-0.0066,-0.2659,0.3023,0
9189513,0.9808,0.0104,0.0083,0.1946,0.0080,-0.2681,0.2956,0
9189680,0.9808,0.0103,0.0083,0.1947,-0.0261,-0.2420,0.2956,0
9190013,0.9807,0.0103,0.0083,0.1949,-0.0572,-0.2669,0.2719,0
9190180,0.9807,0.0102,0.0082,0.1950,-0.0483,-0.2722,0.3439,0
9190846,0.9806,0.0101,0.0082,0.1955,-0.0397,-0.2820,0.3032,0
9191013,0.9806,0.0101,0.0082,0.1956,-0.0558,-0.2461,0.2949,0
9191180,0.9806,0.0101,0.0082,0.1957,-0.0433,-0.2489,0.3051,0
9191513,0.9805,0.0100,0.0082,0.1960,0.0072,-0.2864,0.3047,0
9191680,0.9805,0.0100,0.0082,0.1961,-0.0363,-0.2509,0.2973,0
9191846,0.9805,0.0100,0.0082,0.1962,-0.0586,-0.2786,0.3027,0
9192180,0.9804,0.0099,0.0082,0.1964,-0.0319,-0.2351,0.2809,0
9192346,0.9804,0.0099,0.0082,0.1965,-0.0069,-0.2556,0.2799,0
9192513,0.9804,0.0098,0.0082,0.1967,0.0073,-0.2820,0.3209,0
9192680,0.9804,0.0098,0.0082,0.1968,-0.0209,-0.2404,0.2982,0
9192846,0.9803,0.0098,0.0082,0.1969,-0.0665,-0.2531,0.2713,0
9193013,0.9803,0.0098,0.0082,0.1970,-0.0666,-0.2465,0.2909,0
9193180,0.9803,0.0097,0.0082,0.1971,-0.0354,-0.2490,0.3083,0
9193346,0.9803,0.0097,0.0082,0.1972,0.0030,-0.2552,0.2805,0
9193513,0.9803,0.0097,0.0082,0.1973,-0.0031,-0.2662,0.3213,0
9193680,0.9802,0.0096,0.0082,0.1974,-0.0226,-0.2571,0.2931,0
9193846,0.9802,0.0096,0.0082,0.1975,-0.0533,-0.2392,0.2979,0
9194013,0.9802,0.0096,0.0082,0.1977,-0.0513,-0.2473,0.3061,0
9194180,0.9802,0.0096,0.0082,0.1978,-0.0103,-0.1727,0.2617,0
9194346,0.9801,0.0095,0.0082,0.1979,-0.0118,-0.3482,0.2892,0
9194513,0.9801,0.0095,0.0082,0.1980,-0.0374,-0.2174,0.2607,0
9194680,0.9801,0.0095,0.0083,0.1981,-0.0515,-0.1877,0.4707,0
9194846,0.9801,0.0095,0.0083,0.1982,-0.0363,-0.2993,0.1774,0
9195013,0.9801,0.0094,0.0082,0.1983,-0.0546,-0.2259,0.3214,0
9195180,0.9800,0.0094,0.0083,0.1985,-0.0285,-0.2108,0.4009,0
9195346,0.9800,0.0094,0.0082,0.1986,-0.0043,-0.2508,0.2636,0
9195513,0.9800,0.0094,0.0082,0.1987,-0.0051,-0.2759,0.2449,0
9195680,0.9800,0.0093,0.0083,0.1988,-0.0173,-0.2344,0.3450,0
9195847,0.9799,0.0093,0.0083,0.1990,-0.0612,-0.2506,0.2947,0
9196013,0.9799,0.0093,0.0083,0.1991,-0.0454,-0.2415,0.2600,0
9196180,0.9799,0.0093,0.0083,0.1992,-0.0430,-0.2270,0.3272,0
9196347,0.9799,0.0092,0.0083,0.1993,-0.0071,-0.2464,0.3067,0
9196513,0.9798,0.0092,0.0083,0.1995,-0.0030,-0.2465,0.2929,0
9196680,0.9798,0.0092,0.0083,0.1996,-0.0328,-0.2498,0.2913,0
9196847,0.9798,0.0092,0.0083,0.1997,-0.0581,-0.2419,0.3061,0
9197013,0.9798,0.0092,0.0083,0.1998,-0.0538,-0.2405,0.2896,0
9197180,0.9797,0.0091,0.0083,0.1999,-0.0238,-0.2436,0.3042,0
9197347,0.9797,0.0091,0.0083,0.2001,-0.0050,-0.2274,0.3223,0
9197513,0.9797,0.0091,0.0083,0.2002,-0.0010,-0.2405,0.2865,0
9197680,0.9797,0.0090,0.0083,0.2003,-0.0370,-0.2488,0.2968,0
9197847,0.9796,0.0090,0.0083,0.2004,-0.0466,-0.2306,0.3056,0
9198013,0.9796,0.0090,0.0083,0.2005,-0.0730,-0.2405,0.2851,0
9198180,0.9796,0.0090,0.0083,0.2006,-0.0469,-0.2463,0.3006,0
9198347,0.9796,0.0090,0.0083,0.2007,0.0022,-0.2396,0.3229,0
9198513,0.9795,0.0089,0.0083,0.2009,-0.0014,-0.2430,0.2891,0
9198680,0.9795,0.0089,0.0083,0.2010,-0.0241,-0.2502,0.3053,0
9199347,0.9794,0.0088,0.0083,0.2015,-0.0128,-0.2372,0.2676,0
9199513,0.9794,0.0088,0.0083,0.2016,0.0041,-0.2314,0.2922,0
9199680,0.9794,0.0088,0.0083,0.2017,-0.0150,-0.2287,0.3120,0
9199847,0.9793,0.0088,0.0083,0.2019,-0.0390,-0.2349,0.3178,0
9200013,0.9793,0.0087,0.0083,0.2020,-0.0551,-0.2319,0.2950,0
9200180,0.9793,0.0087,0.0083,0.2021,-0.0499,-0.2177,0.2848,0
9200513,0.9792,0.0087,0.0083,0.2023,-0.0026,-0.2410,0.3103,0
9200680,0.9792,0.0086,0.0083,0.2024,-0.0237,-0.2316,0.3260,0
9200847,0.9792,0.0086,0.0083,0.2026,-0.0524,-0.2309,0.2940,0
9201347,0.9791,0.0085,0.0083,0.2029,-0.0324,-0.2192,0.2769,0
9201513,0.9791,0.0085,0.0083,0.2030,-0.0121,-0.2519,0.2741,0
9201680,0.9791,0.0085,0.0083,0.2032,-0.0204,-0.2294,0.3062,0
9202013,0.9790,0.0084,0.0083,0.2034,-0.0422,-0.2338,0.2944,0
9202180,0.9790,0.0084,0.0083,0.2035,-0.0488,-0.2368,0.2871,0
9202347,0.9790,0.0084,0.0083,0.2036,-0.0173,-0.2343,0.3014,0
9202513,0.9790,0.0084,0.0083,0.2037,-0.0150,-0.2257,0.2894,0
9202680,0.9789,0.0083,0.0083,0.2039,-0.0217,-0.2223,0.2892,0
9202847,0.9789,0.0083,0.0083,0.2040,-0.0345,-0.2338,0.2782,0
9203013,0.9789,0.0083,0.0083,0.2041,-0.0576,-0.2341,0.3016,0
9203180,0.9788,0.0083,0.0083,0.2043,-0.0301,-0.2154,0.2701,0
9203347,0.9788,0.0082,0.0083,0.2044,-0.0104,-0.2151,0.2783,0
9203513,0.9788,0.0082,0.0083,0.2045,-0.0076,-0.2359,0.2931,0
9203680,0.9788,0.0082,0.0083,0.2046,-0.0182,-0.2341,0.3053,0
9204180,0.9787,0.0081,0.0083,0.2050,-0.0406,-0.2163,0.2979,0
9204347,0.9787,0.0081,0.0083,0.2051,-0.0246,-0.2197,0.2905,0
9204513,0.9787,0.0081,0.0083,0.2052,-0.0349,-0.2263,0.3140,0
9204680,0.9786,0.0081,0.0083,0.2053,-0.0240,-0.2389,0.3101,0
9204847,0.9786,0.0080,0.0083,0.2054,-0.0272,-0.2156,0.2821,0
9205680,0.9785,0.0079,0.0083,0.2060,-0.0149,-0.2243,0.3111,0
9205847,0.9785,0.0079,0.0083,0.2062,-0.0239,-0.2232,0.2933,0
9206013,0.9784,0.0079,0.0083,0.2063,-0.0493,-0.2186,0.3020,0
9206180,0.9784,0.0079,0.0083,0.2064,-0.0546,-0.2197,0.2884,0
9206347,0.9784,0.0078,0.0083,0.2065,-0.0282,-0.2248,0.2958,0
9206513,0.9783,0.0078,0.0083,0.2066,-0.0158,-0.2119,0.3109,0
9206847,0.9783,0.0078,0.0083,0.2069,-0.0466,-0.2261,0.2879,0
9207013,0.9783,0.0077,0.0083,0.2070,-0.0462,-0.2210,0.3090,0
9207180,0.9782,0.0077,0.0083,0.2071,-0.0264,-0.2216,0.3173,0
9207680,0.9782,0.0077,0.0083,0.2075,-0.0350,-0.2126,0.2829,0
9207847,0.9781,0.0076,0.0083,0.2076,-0.0427,-0.2233,0.2844,0
9208013,0.9781,0.0076,0.0083,0.2078,-0.0586,-0.2106,0.2867,0
9208347,0.9781,0.0076,0.0083,0.2080,-0.0340,-0.2175,0.2815,0
9208513,0.9780,0.0076,0.0083,0.2081,-0.0217,-0.2081,0.3097,0
9208680,0.9780,0.0076,0.0083,0.2083,-0.0375,-0.2114,0.3202,0
9208847,0.9780,0.0075,0.0083,0.2084,-0.0496,-0.2116,0.3103,0
9209013,0.9780,0.0075,0.0083,0.2085,-0.0356,-0.2016,0.3163,0
9209180,0.9779,0.0075,0.0083,0.2086,-0.0446,-0.2030,0.2824,0
9209347,0.9779,0.0075,0.0083,0.2088,-0.0343,-0.2201,0.2698,0
9209847,0.9778,0.0074,0.0083,0.2091,-0.0443,-0.2059,0.2900,0
9210013,0.9778,0.0074,0.0083,0.2093,-0.0592,-0.2174,0.3044,0
9210180,0.9778,0.0074,0.0083,0.2094,-0.0567,-0.2135,0.2986,0
9210347,0.9777,0.0073,0.0083,0.2095,-0.0404,-0.1991,0.3046,0
9210513,0.9777,0.0073,0.0083,0.2096,-0.0322,-0.2041,0.3131,0
9210680,0.9777,0.0073,0.0083,0.2097,-0.0463,-0.2198,0.3291,0
9211013,0.9776,0.0073,0.0083,0.2100,-0.0492,-0.2002,0.2920,0
9211180,0.9776,0.0072,0.0083,0.2101,-0.0441,-0.1997,0.3172,0
9211347,0.9776,0.0072,0.0083,0.2102,-0.0203,-0.1939,0.2966,0
9211513,0.9776,0.0072,0.0084,0.2104,-0.0272,-0.2088,0.3206,0
9211680,0.9775,0.0072,0.0084,0.2105,-0.0504,-0.2117,0.3068,0
9211847,0.9775,0.0071,0.0084,0.2107,-0.0478,-0.2193,0.2815,0
9212013,0.9775,0.0071,0.0084,0.2108,-0.0486,-0.1800,0.3239,0
9212180,0.9774,0.0071,0.0084,0.2109,-0.0392,-0.1822,0.2863,0
9212347,0.9774,0.0071,0.0084,0.2111,-0.0340,-0.2127,0.2875,0
9212514,0.9774,0.0071,0.0084,0.2112,-0.0321,-0.1943,0.3355,0
9212680,0.9774,0.0070,0.0084,0.2113,-0.0145,-0.2189,0.2506,0
9212847,0.9773,0.0070,0.0084,0.2114,-0.0507,-0.1961,0.2884,0
9213180,0.9773,0.0070,0.0084,0.2117,-0.0328,-0.2101,0.2883,0
9213347,0.9772,0.0069,0.0084,0.2118,-0.0360,-0.2112,0.2633,0
9213514,0.9772,0.0069,0.0084,0.2120,-0.0334,-0.1833,0.3358,0
9213680,0.9772,0.0069,0.0084,0.2121,-0.0284,-0.1818,0.3107,0
9213847,0.9772,0.0069,0.0084,0.2122,-0.0518,-0.2139,0.2702,0
9214014,0.9771,0.0069,0.0083,0.2123,-0.0626,-0.2058,0.2976,0
9214180,0.9771,0.0069,0.0083,0.2124,-0.0384,-0.2066,0.2932,0
9214347,0.9771,0.0069,0.0083,0.2126,-0.0279,-0.1969,0.3095,0
9214680,0.9770,0.0068,0.0083,0.2128,-0.0336,-0.2110,0.2895,0
9214847,0.9770,0.0068,0.0084,0.2129,-0.0513,-0.1885,0.2808,0
9215014,0.9770,0.0068,0.0084,0.2130,-0.0582,-0.2097,0.3170,0
9215514,0.9769,0.0067,0.0084,0.2134,-0.0288,-0.2042,0.3106,0
9215680,0.9769,0.0067,0.0084,0.2136,-0.0320,-0.2209,0.3426,0
9215847,0.9768,0.0067,0.0084,0.2137,-0.0385,-0.1915,0.2955,0
9216180,0.9768,0.0066,0.0084,0.2139,-0.0535,-0.1921,0.3029,0
9216347,0.9768,0.0066,0.0084,0.2140,-0.0336,-0.1904,0.2988,0
9216514,0.9768,0.0066,0.0084,0.2141,-0.0247,-0.1837,0.3040,0
9216680,0.9767,0.0066,0.0084,0.2142,-0.0271,-0.1919,0.3025,0
9216847,0.9767,0.0065,0.0084,0.2144,-0.0341,-0.1826,0.3010,0
9217014,0.9767,0.0065,0.0084,0.2145,-0.0432,-0.1823,0.3044,0
9217180,0.9766,0.0065,0.0084,0.2146,-0.0504,-0.2062,0.2887,0
9217347,0.9766,0.0065,0.0084,0.2148,-0.0301,-0.1934,0.2682,0
9217514,0.9766,0.0065,0.0084,0.2149,-0.0317,-0.1976,0.3103,0
9217680,0.9765,0.0064,0.0083,0.2151,-0.0432,-0.1858,0.2945,0
9217847,0.9765,0.0064,0.0083,0.2152,-0.0543,-0.2070,0.2686,0
9218014,0.9765,0.0064,0.0083,0.2154,-0.0500,-0.2042,0.2901,0
9218180,0.9764,0.0064,0.0083,0.2155,-0.0398,-0.1934,0.2848,0
9218347,0.9764,0.0064,0.0083,0.2156,-0.0363,-0.2063,0.3112,0
9218847,0.9763,0.0063,0.0083,0.2161,-0.0508,-0.2006,0.2926,0
9219014,0.9763,0.0063,0.0083,0.2162,-0.0682,-0.2016,0.3300,0
9219180,0.9763,0.0063,0.0083,0.2163,-0.0270,-0.1852,0.2786,0
9219680,0.9762,0.0062,0.0083,0.2167,-0.0559,-0.1747,0.2963,0
9219847,0.9761,0.0062,0.0083,0.2169,-0.0638,-0.1958,0.2676,0
9220347,0.9761,0.0062,0.0083,0.2172,-0.0238,-0.1799,0.3015,0
9220514,0.9760,0.0062,0.0083,0.2174,-0.0225,-0.1952,0.3262,0
9220847,0.9760,0.0061,0.0083,0.2176,-0.0618,-0.1805,0.2793,0
9221014,0.9759,0.0061,0.0083,0.2178,-0.0708,-0.2090,0.3012,0
9221180,0.9759,0.0061,0.0083,0.2179,-0.0393,-0.1906,0.2763,0
9221347,0.9759,0.0061,0.0083,0.2180,-0.0296,-0.1891,0.2631,0
9221514,0.9759,0.0061,0.0083,0.2181,-0.0239,-0.1920,0.2923,0
9221680,0.9758,0.0060,0.0083,0.2182,-0.0461,-0.1795,0.3124,0
9221847,0.9758,0.0060,0.0083,0.2184,-0.0771,-0.1880,0.2983,0
9222014,0.9758,0.0060,0.0083,0.2185,-0.0559,-0.1995,0.2895,0
9222180,0.9758,0.0060,0.0083,0.2186,-0.0370,-0.1782,0.3079,0
9222347,0.9757,0.0060,0.0083,0.2187,-0.0105,-0.1723,0.3113,0
9222514,0.9757,0.0060,0.0083,0.2189,-0.0310,-0.1852,0.2691,0
9222680,0.9757,0.0059,0.0083,0.2190,-0.0397,-0.1816,0.2996,0
9223014,0.9756,0.0059,0.0083,0.2193,-0.0522,-0.2036,0.2991,0
9223180,0.9756,0.0059,0.0083,0.2194,-0.0266,-0.1805,0.2789,0
9223347,0.9755,0.0058,0.0084,0.2195,-0.0234,-0.1674,0.2926,0
9223514,0.9755,0.0058,0.0084,0.2197,-0.0249,-0.1886,0.2811,0
9223680,0.9755,0.0058,0.0084,0.2198,-0.0590,-0.1819,0.3161,0
9223847,0.9755,0.0058,0.0084,0.2199,-0.0845,-0.1772,0.3405,0
9224014,0.9754,0.0058,0.0084,0.2201,-0.0474,-0.1687,0.2837,0
9224514,0.9753,0.0057,0.0084,0.2205,-0.0219,-0.1789,0.2956,0
9224680,0.9753,0.0057,0.0084,0.2206,-0.0335,-0.1681,0.2781,0
9224847,0.9753,0.0057,0.0084,0.2208,-0.0656,-0.1760,0.3319,0
9225180,0.9752,0.0057,0.0084,0.2210,-0.0358,-0.1865,0.2499,0
9225347,0.9752,0.0056,0.0084,0.2212,-0.0217,-0.1859,0.3103,0
9225514,0.9752,0.0056,0.0084,0.2213,-0.0108,-0.1730,0.3040,0
9225680,0.9751,0.0056,0.0084,0.2214,-0.0536,-0.1700,0.3073,0
9225847,0.9751,0.0056,0.0084,0.2216,-0.0625,-0.1779,0.2948,0
9226014,0.9751,0.0056,0.0084,0.2217,-0.0642,-0.1902,0.2856,0
9226180,0.9750,0.0056,0.0084,0.2218,-0.0292,-0.1744,0.2851,0
9226347,0.9750,0.0055,0.0084,0.2219,-0.0219,-0.1710,0.2962,0
9226680,0.9749,0.0055,0.0084,0.2222,-0.0484,-0.1959,0.2762,0
9226847,0.9749,0.0055,0.0084,0.2224,-0.0685,-0.1708,0.3194,0
9227014,0.9749,0.0055,0.0084,0.2225,-0.0521,-0.1634,0.2991,0
9227514,0.9748,0.0054,0.0084,0.2229,-0.0261,-0.1846,0.3036,0
9227680,0.9748,0.0054,0.0084,0.2230,-0.0493,-0.1765,0.2967,0
9227847,0.9747,0.0054,0.0084,0.2232,-0.0688,-0.1564,0.3172,0
9228180,0.9747,0.0053,0.0084,0.2235,-0.0415,-0.1686,0.2794,0
9228347,0.9746,0.0053,0.0084,0.2236,-0.0324,-0.1850,0.2869,0
9228514,0.9746,0.0053,0.0084,0.2237,-0.0138,-0.1798,0.2814,0
9228680,0.9746,0.0053,0.0084,0.2239,-0.0449,-0.1757,0.2838,0
9228847,0.9745,0.0053,0.0084,0.2240,-0.0601,-0.1664,0.3185,0
9229681,0.9744,0.0052,0.0084,0.2247,-0.0420,-0.1776,0.2919,0
9229847,0.9743,0.0052,0.0084,0.2249,-0.0575,-0.1807,0.2915,0
9230014,0.9743,0.0052,0.0084,0.2250,-0.0534,-0.1723,0.2919,0
9230181,0.9743,0.0052,0.0084,0.2251,-0.0400,-0.1663,0.2920,0
9230847,0.9742,0.0051,0.0084,0.2257,-0.0590,-0.1690,0.3003,0
9231014,0.9741,0.0051,0.0084,0.2258,-0.0425,-0.1705,0.2806,0
9231681,0.9740,0.0050,0.0084,0.2264,-0.0489,-0.1590,0.3054,0
9231847,0.9740,0.0050,0.0084,0.2265,-0.0521,-0.1528,0.2787,0
9232014,0.9739,0.0050,0.0084,0.2266,-0.0563,-0.1797,0.2939,0
9232347,0.9739,0.0050,0.0084,0.2269,-0.0324,-0.1581,0.3192,0
9232514,0.9739,0.0050,0.0084,0.2270,-0.0415,-0.1680,0.2695,0
9232847,0.9738,0.0050,0.0084,0.2272,-0.0626,-0.1681,0.2900,0
9233014,0.9738,0.0050,0.0084,0.2273,-0.0561,-0.1757,0.3074,0
9233847,0.9736,0.0049,0.0084,0.2280,-0.0468,-0.1725,0.3148,0
9234014,0.9736,0.0049,0.0084,0.2281,-0.0526,-0.1422,0.2885,0
9234347,0.9735,0.0048,0.0085,0.2284,-0.0468,-0.1711,0.2968,0
9234514,0.9735,0.0048,0.0085,0.2286,-0.0332,-0.1812,0.3035,0
9234681,0.9734,0.0048,0.0085,0.2287,-0.0351,-0.1664,0.3073,0
9235014,0.9734,0.0048,0.0085,0.2290,-0.0338,-0.1528,0.3057,0
9235181,0.9734,0.0048,0.0085,0.2291,-0.0531,-0.1635,0.2848,0
9235347,0.9733,0.0048,0.0085,0.2292,-0.0525,-0.1736,0.2904,0
9235847,0.9732,0.0047,0.0085,0.2296,-0.0414,-0.1520,0.3198,0
9236014,0.9732,0.0047,0.0085,0.2298,-0.0533,-0.1739,0.3075,0
9236181,0.9732,0.0047,0.0085,0.2299,-0.0427,-0.1712,0.2752,0
9236514,0.9731,0.0047,0.0085,0.2302,-0.0438,-0.1342,0.2879,0
9236681,0.9731,0.0046,0.0085,0.2304,-0.0477,-0.1529,0.3003,0
9236847,0.9730,0.0046,0.0085,0.2305,-0.0506,-0.1580,0.2930,0
9237181,0.9730,0.0046,0.0085,0.2308,-0.0470,-0.1577,0.3009,0
9237347,0.9729,0.0046,0.0085,0.2310,-0.0413,-0.1537,0.2966,0
9237514,0.9729,0.0046,0.0085,0.2311,-0.0396,-0.1609,0.2931,0
9237681,0.9728,0.0046,0.0084,0.2313,-0.0390,-0.1702,0.2789,0
9237847,0.9728,0.0045,0.0085,0.2314,-0.0365,-0.1512,0.2858,0
9238014,0.9728,0.0045,0.0085,0.2316,-0.0289,-0.1601,0.3031,0
9238181,0.9727,0.0045,0.0085,0.2318,-0.0409,-0.1433,0.3050,0
9238681,0.9726,0.0045,0.0085,0.2322,-0.0280,-0.1750,0.2859,0
9238847,0.9726,0.0045,0.0085,0.2324,-0.0291,-0.1496,0.3052,0
9239181,0.9725,0.0044,0.0085,0.2327,-0.0610,-0.1732,0.2696,0
9239347,0.9725,0.0044,0.0085,0.2328,-0.0337,-0.1921,0.2756,0
9239514,0.9724,0.0044,0.0085,0.2329,-0.0344,-0.1593,0.3271,0
9239681,0.9724,0.0044,0.0085,0.2331,-0.0399,-0.1469,0.2648,0
9239847,0.9724,0.0044,0.0085,0.2332,-0.0231,-0.1394,0.3196,0
9240014,0.9723,0.0044,0.0085,0.2334,-0.0493,-0.1490,0.3032,0
9240181,0.9723,0.0044,0.0085,0.2335,-0.0559,-0.1671,0.2920,0
9240681,0.9722,0.0043,0.0085,0.2340,-0.0185,-0.1475,0.2708,0
9240847,0.9722,0.0043,0.0085,0.2341,-0.0555,-0.1459,0.2805,0
9241347,0.9721,0.0043,0.0085,0.2346,-0.0336,-0.1395,0.3184,0
9241681,0.9720,0.0042,0.0085,0.2348,-0.0165,-0.1604,0.2680,0
9241847,0.9720,0.0042,0.0085,0.2350,-0.0258,-0.1616,0.2763,0
9242181,0.9719,0.0042,0.0085,0.2352,-0.0575,-0.1374,0.2717,0
9242347,0.9719,0.0042,0.0085,0.2354,-0.0449,-0.1693,0.3112,0
9242514,0.9718,0.0042,0.0085,0.2355,-0.0410,-0.1566,0.2932,0
9242847,0.9718,0.0041,0.0085,0.2358,-0.0139,-0.1586,0.2917,0
9243014,0.9717,0.0041,0.0085,0.2359,-0.0509,-0.1308,0.2979,0
9243181,0.9717,0.0041,0.0086,0.2361,-0.0582,-0.1594,0.3009,0
9243681,0.9716,0.0041,0.0086,0.2365,-0.0235,-0.1423,0.2904,0
9244347,0.9714,0.0040,0.0085,0.2371,-0.0585,-0.1464,0.2773,0
9244514,0.9714,0.0040,0.0086,0.2373,-0.0161,-0.1259,0.3476,0
9244847,0.9713,0.0040,0.0086,0.2375,-0.0462,-0.1476,0.2433,0
9245014,0.9713,0.0039,0.0086,0.2377,-0.0602,-0.1979,0.2908,0
9245181,0.9713,0.0039,0.0086,0.2378,-0.0390,-0.1491,0.3277,0
9245347,0.9712,0.0039,0.0086,0.2380,-0.0282,-0.0974,0.3017,0
9245514,0.9712,0.0039,0.0086,0.2381,-0.0266,-0.1287,0.2771,0
9245681,0.9712,0.0039,0.0086,0.2383,-0.0287,-0.1513,0.3485,0
9245848,0.9711,0.0039,0.0086,0.2384,-0.0817,-0.1529,0.2013,0
9246014,0.9711,0.0039,0.0086,0.2385,-0.0522,-0.1510,0.3146,0
9246181,0.9711,0.0039,0.0086,0.2387,-0.0426,-0.1395,0.3087,0
9246348,0.9710,0.0039,0.0086,0.2388,-0.0153,-0.1020,0.3148,0
9246514,0.9710,0.0038,0.0086,0.2389,-0.0425,-0.1601,0.2824,0
9246681,0.9710,0.0038,0.0086,0.2391,-0.0443,-0.1977,0.2932,0
9247014,0.9709,0.0038,0.0086,0.2394,-0.0311,-0.0859,0.3234,0
9247181,0.9708,0.0038,0.0086,0.2395,-0.0493,-0.1195,0.3205,0
9247348,0.9708,0.0037,0.0086,0.2397,-0.0593,-0.1906,0.2356,0
9247514,0.9708,0.0037,0.0086,0.2398,-0.0538,-0.1807,0.2873,0
9247681,0.9707,0.0037,0.0086,0.2399,-0.0372,-0.1120,0.3020,0
9247848,0.9707,0.0037,0.0086,0.2401,-0.0209,-0.1110,0.3053,0
9248014,0.9707,0.0037,0.0086,0.2402,-0.0365,-0.1299,0.3334,0
9248181,0.9706,0.0037,0.0086,0.2404,-0.0486,-0.1544,0.2829,0
9248348,0.9706,0.0037,0.0086,0.2405,-0.0375,-0.1595,0.2771,0
9248514,0.9706,0.0036,0.0086,0.2407,-0.0347,-0.1396,0.3137,0
9248681,0.9705,0.0036,0.0086,0.2408,-0.0342,-0.1268,0.3057,0
9248848,0.9705,0.0036,0.0086,0.2410,-0.0400,-0.1411,0.2865,0
9249014,0.9704,0.0036,0.0085,0.2412,-0.0780,-0.1484,0.2721,0
9249181,0.9704,0.0036,0.0085,0.2413,-0.0580,-0.1612,0.2773,0
9249348,0.9704,0.0036,0.0085,0.2415,-0.0373,-0.1360,0.3013,0
9249514,0.9703,0.0036,0.0085,0.2416,-0.0421,-0.1060,0.2769,0
9249681,0.9703,0.0036,0.0085,0.2418,-0.0379,-0.1377,0.2949,0
9249848,0.9703,0.0036,0.0085,0.2419,-0.0419,-0.1521,0.3182,0
9250014,0.9702,0.0035,0.0085,0.2420,-0.0307,-0.1578,0.2868,0
9250181,0.9702,0.0035,0.0085,0.2422,-0.0543,-0.1337,0.3110,0
9250681,0.9701,0.0035,0.0085,0.2427,-0.0158,-0.1679,0.2766,0
9250848,0.9700,0.0035,0.0085,0.2429,-0.0317,-0.1416,0.2738,0
9251014,0.9700,0.0035,0.0085,0.2430,-0.0363,-0.1168,0.3075,0
9251181,0.9699,0.0035,0.0085,0.2432,-0.0671,-0.1454,0.3270,0
9251348,0.9699,0.0034,0.0086,0.2433,-0.0422,-0.1577,0.2972,0
9251514,0.9699,0.0034,0.0085,0.2434,-0.0272,-0.1508,0.2776,0
9251681,0.9698,0.0034,0.0086,0.2436,-0.0258,-0.1232,0.2944,0
9251848,0.9698,0.0034,0.0086,0.2437,-0.0422,-0.1195,0.3133,0
9252014,0.9698,0.0034,0.0086,0.2438,-0.0731,-0.1302,0.2930,0
9252181,0.9697,0.0034,0.0086,0.2440,-0.0619,-0.1643,0.3041,0
9252348,0.9697,0.0034,0.0086,0.2442,-0.0119,-0.1382,0.2703,0
9252514,0.9696,0.0034,0.0086,0.2443,0.0047,-0.1210,0.3251,0
9252681,0.9696,0.0034,0.0086,0.2445,-0.0284,-0.1310,0.2666,0
9253348,0.9695,0.0033,0.0086,0.2451,-0.0110,-0.1109,0.2839,0
9253514,0.9694,0.0033,0.0086,0.2452,-0.0156,-0.1237,0.2840,0
9253681,0.9694,0.0033,0.0086,0.2454,-0.0351,-0.1484,0.3019,0
9253848,0.9693,0.0033,0.0086,0.2456,-0.0542,-0.1524,0.3008,0
9254014,0.9693,0.0033,0.0086,0.2457,-0.0722,-0.1144,0.2755,0
9254181,0.9693,0.0033,0.0086,0.2459,-0.0577,-0.1236,0.3230,0
9254348,0.9692,0.0033,0.0086,0.2460,-0.0317,-0.1511,0.3264,0
9254514,0.9692,0.0032,0.0086,0.2462,-0.0247,-0.1614,0.2735,0
9254848,0.9691,0.0032,0.0086,0.2465,-0.0416,-0.1089,0.3238,0
9255014,0.9691,0.0032,0.0086,0.2466,-0.0469,-0.1309,0.2997,0
9255181,0.9690,0.0032,0.0086,0.2468,-0.0602,-0.1531,0.3170,0
9255681,0.9689,0.0032,0.0086,0.2473,-0.0182,-0.1272,0.3131,0
9255848,0.9688,0.0032,0.0086,0.2475,-0.0543,-0.1356,0.3038,0
9256014,0.9688,0.0031,0.0086,0.2477,-0.0777,-0.1395,0.2596,0
9256348,0.9687,0.0031,0.0086,0.2479,-0.0208,-0.1436,0.2917,0
9256514,0.9687,0.0031,0.0086,0.2481,-0.0158,-0.1107,0.3244,0
9256681,0.9687,0.0031,0.0086,0.2482,-0.0389,-0.1226,0.2859,0
9256848,0.9687,0.0031,0.0086,0.2483,-0.0361,-0.1384,0.3009,0
9257014,0.9686,0.0031,0.0086,0.2484,-0.0531,-0.1440,0.2962,0
9257181,0.9686,0.0031,0.0086,0.2486,-0.0525,-0.1257,0.3257,0
9257848,0.9684,0.0031,0.0086,0.2492,-0.0474,-0.1350,0.3137,0
9258014,0.9684,0.0030,0.0086,0.2494,-0.0441,-0.1417,0.2815,0
9258181,0.9683,0.0030,0.0086,0.2496,-0.0393,-0.1393,0.3032,0
9258348,0.9683,0.0030,0.0086,0.2497,-0.0377,-0.1509,0.2976,0
9258514,0.9682,0.0030,0.0086,0.2499,-0.0245,-0.1326,0.2776,0
9258681,0.9682,0.0030,0.0086,0.2500,-0.0225,-0.1283,0.2947,0
9259014,0.9681,0.0030,0.0086,0.2504,-0.0467,-0.1447,0.3137,0
9259181,0.9681,0.0030,0.0086,0.2505,-0.0534,-0.1291,0.2946,0
9259348,0.9680,0.0029,0.0087,0.2507,-0.0311,-0.1279,0.2712,0
9259848,0.9679,0.0029,0.0087,0.2512,-0.0536,-0.1299,0.2955,0
9260014,0.9679,0.0029,0.0087,0.2513,-0.0615,-0.1275,0.3191,0
9260181,0.9678,0.0029,0.0087,0.2514,-0.0536,-0.1242,0.2961,0
9260514,0.9677,0.0029,0.0087,0.2518,-0.0313,-0.1333,0.3001,0
9260681,0.9677,0.0028,0.0087,0.2519,-0.0142,-0.1386,0.2981,0
9260848,0.9677,0.0028,0.0087,0.2521,-0.0348,-0.1268,0.3003,0
9261181,0.9676,0.0028,0.0087,0.2524,-0.0607,-0.1435,0.3067,0
9261348,0.9675,0.0028,0.0087,0.2525,-0.0298,-0.1246,0.2648,0
9262014,0.9674,0.0028,0.0087,0.2531,-0.0490,-0.1277,0.2920,0
9262181,0.9674,0.0028,0.0087,0.2533,-0.0560,-0.1285,0.2958,0
9262348,0.9673,0.0028,0.0087,0.2534,-0.0250,-0.1189,0.2986,0
9263181,0.9671,0.0027,0.0087,0.2543,-0.0606,-0.1233,0.3228,0
9263348,0.9670,0.0027,0.0087,0.2544,-0.0256,-0.1190,0.2558,0
9263515,0.9670,0.0027,0.0087,0.2547,-0.0166,-0.1331,0.3328,0
9263681,0.9669,0.0027,0.0087,0.2548,-0.0114,-0.1450,0.3020,0
9263848,0.9669,0.0027,0.0087,0.2550,-0.0579,-0.1250,0.2912,0
9264015,0.9669,0.0027,0.0087,0.2551,-0.0635,-0.1307,0.3019,0
9264181,0.9668,0.0027,0.0087,0.2553,-0.0772,-0.1325,0.3000,0
9264348,0.9668,0.0027,0.0087,0.2554,-0.0233,-0.1434,0.2571,0
9264515,0.9667,0.0026,0.0087,0.2556,-0.0003,-0.1208,0.2736,0
9264681,0.9667,0.0026,0.0087,0.2558,-0.0111,-0.1334,0.3145,0
9264848,0.9667,0.0026,0.0087,0.2559,-0.0338,-0.1412,0.3031,0
9265015,0.9666,0.0026,0.0087,0.2561,-0.0748,-0.1313,0.2939,0
9265348,0.9665,0.0026,0.0087,0.2564,-0.0400,-0.1258,0.3261,0
9265515,0.9665,0.0026,0.0087,0.2565,-0.0149,-0.1234,0.2948,0
9265681,0.9664,0.0026,0.0087,0.2567,-0.0180,-0.1312,0.3009,0
9265848,0.9664,0.0026,0.0087,0.2569,-0.0571,-0.1312,0.2889,0
9266015,0.9664,0.0026,0.0087,0.2570,-0.0544,-0.1167,0.2823,0
9266181,0.9663,0.0025,0.0087,0.2571,-0.0612,-0.1178,0.3270,0
9266348,0.9663,0.0025,0.0087,0.2572,-0.0158,-0.0914,0.3147,0
9266515,0.9663,0.0025,0.0087,0.2574,-0.0033,-0.1536,0.2303,0
9266681,0.9662,0.0025,0.0087,0.2575,-0.0015,-0.1323,0.2935,0
9266848,0.9662,0.0025,0.0087,0.2577,-0.0324,-0.1102,0.3451,0
9267015,0.9661,0.0025,0.0087,0.2578,-0.0432,-0.1243,0.2608,0
9267181,0.9661,0.0025,0.0087,0.2580,-0.0669,-0.1353,0.2975,0
9267348,0.9661,0.0025,0.0087,0.2582,-0.0347,-0.1171,0.3243,0
9267515,0.9660,0.0025,0.0087,0.2583,-0.0323,-0.1119,0.3096,0
9267681,0.9660,0.0025,0.0087,0.2585,-0.0125,-0.1372,0.2797,0
9267848,0.9659,0.0025,0.0087,0.2586,-0.0330,-0.1284,0.3237,0
9268015,0.9659,0.0025,0.0087,0.2588,-0.0709,-0.1189,0.3015,0
9268848,0.9657,0.0024,0.0087,0.2597,-0.0287,-0.1166,0.2976,0
9269015,0.9656,0.0024,0.0088,0.2598,-0.0527,-0.1207,0.3094,0
9269181,0.9656,0.0024,0.0088,0.2600,-0.0618,-0.1201,0.3046,0
9269515,0.9655,0.0024,0.0087,0.2603,-0.0130,-0.1285,0.2753,0
9269681,0.9654,0.0024,0.0088,0.2604,0.0006,-0.1213,0.2879,0
9269848,0.9654,0.0024,0.0088,0.2606,-0.0264,-0.1210,0.3029,0
9270015,0.9654,0.0024,0.0088,0.2608,-0.0453,-0.1099,0.2978,0
9270181,0.9653,0.0024,0.0088,0.2609,-0.0677,-0.1173,0.3045,0
9270348,0.9653,0.0024,0.0088,0.2611,-0.0473,-0.1100,0.3289,0
9270515,0.9652,0.0024,0.0088,0.2613,-0.0426,-0.1233,0.2907,0
9270681,0.9652,0.0024,0.0088,0.2614,-0.0220,-0.1200,0.3018,0
9270848,0.9651,0.0024,0.0088,0.2616,-0.0125,-0.1409,0.3154,0
9271848,0.9649,0.0023,0.0088,0.2625,-0.0321,-0.1436,0.2724,0
9272015,0.9648,0.0023,0.0088,0.2626,-0.0605,-0.1291,0.3141,0
9272181,0.9648,0.0023,0.0088,0.2628,-0.0525,-0.1179,0.3001,0
9272515,0.9647,0.0023,0.0089,0.2632,-0.0439,-0.1042,0.3129,0
9272681,0.9647,0.0023,0.0088,0.2633,-0.0166,-0.1410,0.2809,0
9272848,0.9646,0.0023,0.0088,0.2635,-0.0139,-0.1479,0.2945,0
9273348,0.9645,0.0022,0.0088,0.2641,-0.0564,-0.1233,0.2981,0
9273681,0.9644,0.0022,0.0088,0.2644,-0.0135,-0.1344,0.2819,0
9274015,0.9643,0.0022,0.0088,0.2648,-0.0243,-0.1083,0.3296,0
9274181,0.9642,0.0022,0.0089,0.2650,-0.0311,-0.1152,0.3077,0
9274681,0.9641,0.0022,0.0089,0.2655,-0.0443,-0.1492,0.2839,0
9274848,0.9640,0.0022,0.0089,0.2657,-0.0160,-0.1045,0.3165,0
9275015,0.9640,0.0022,0.0089,0.2659,-0.0329,-0.0790,0.3058,0
9275181,0.9639,0.0022,0.0089,0.2660,-0.0358,-0.1155,0.2985,0
9275348,0.9639,0.0021,0.0089,0.2662,-0.0704,-0.1659,0.3190,0
9275515,0.9638,0.0021,0.0089,0.2663,-0.0540,-0.1558,0.2015,0
9275681,0.9638,0.0021,0.0089,0.2665,-0.0059,-0.0904,0.4240,0
9275848,0.9638,0.0021,0.0089,0.2666,0.0025,-0.0649,0.2571,0
9276015,0.9637,0.0021,0.0089,0.2668,-0.0094,-0.0914,0.3392,0
9276181,0.9637,0.0021,0.0089,0.2669,-0.0659,-0.1578,0.2321,0
9276348,0.9636,0.0021,0.0089,0.2671,-0.0618,-0.1718,0.2976,0
9276515,0.9636,0.0021,0.0089,0.2673,-0.0108,-0.0969,0.3299,0
9276681,0.9635,0.0021,0.0089,0.2674,-0.0004,-0.0595,0.3246,0
9277015,0.9634,0.0021,0.0089,0.2678,-0.0349,-0.1813,0.2632,0
9277181,0.9634,0.0020,0.0089,0.2679,-0.0482,-0.1315,0.2944,0
9277348,0.9634,0.0020,0.0089,0.2681,-0.0567,-0.0507,0.3029,0
9277515,0.9633,0.0020,0.0089,0.2683,-0.0106,-0.0955,0.3342,0
9277681,0.9633,0.0020,0.0089,0.2684,-0.0245,-0.1720,0.2720,0
9277848,0.9632,0.0020,0.0089,0.2686,-0.0363,-0.1427,0.2644,0
9278015,0.9632,0.0020,0.0089,0.2687,-0.0429,-0.0961,0.3008,0
9278181,0.9631,0.0020,0.0089,0.2689,-0.0161,-0.0850,0.3301,0
9278348,0.9631,0.0020,0.0089,0.2690,-0.0372,-0.1166,0.2836,0
9278515,0.9630,0.0020,0.0089,0.2692,-0.0546,-0.1450,0.2817,0
9278681,0.9630,0.0020,0.0089,0.2694,-0.0201,-0.1402,0.2709,0
9278848,0.9629,0.0020,0.0089,0.2695,0.0024,-0.1187,0.2996,0
9279015,0.9629,0.0020,0.0089,0.2697,-0.0321,-0.0870,0.3340,0
9279182,0.9629,0.0020,0.0089,0.2698,-0.0664,-0.1077,0.3068,0
9279348,0.9628,0.0020,0.0089,0.2700,-0.0563,-0.1565,0.2828,0
9279515,0.9628,0.0020,0.0089,0.2701,-0.0238,-0.1290,0.3122,0
9279682,0.9627,0.0020,0.0089,0.2703,-0.0398,-0.0827,0.3124,0
9279848,0.9627,0.0020,0.0089,0.2705,-0.0206,-0.1061,0.3029,0
9280015,0.9626,0.0020,0.0089,0.2706,-0.0301,-0.1447,0.3039,0
9280348,0.9626,0.0019,0.0089,0.2709,-0.0543,-0.0945,0.2702,0
9280515,0.9625,0.0019,0.0089,0.2711,-0.0217,-0.0849,0.2934,0
9280682,0.9625,0.0019,0.0089,0.2713,-0.0130,-0.1135,0.2919,0
9280848,0.9624,0.0019,0.0089,0.2714,-0.0251,-0.1316,0.2802,0
9281015,0.9624,0.0019,0.0089,0.2716,-0.0376,-0.1321,0.3041,0
9281515,0.9622,0.0019,0.0089,0.2720,-0.0341,-0.1189,0.2894,0
9281682,0.9622,0.0019,0.0089,0.2722,-0.0256,-0.1328,0.2711,0
9281848,0.9622,0.0019,0.0089,0.2724,-0.0249,-0.1240,0.2984,0
9282015,0.9621,0.0019,0.0089,0.2724,-0.0429,-0.0934,0.3210,0
9282182,0.9621,0.0019,0.0089,0.2726,-0.0467,-0.1101,0.3091,0
9282348,0.9620,0.0018,0.0089,0.2727,-0.0459,-0.1126,0.2808,0
9282515,0.9620,0.0018,0.0089,0.2729,-0.0363,-0.1335,0.3169,0
9282682,0.9619,0.0018,0.0089,0.2731,-0.0230,-0.1231,0.2809,0
9282848,0.9619,0.0018,0.0089,0.2732,-0.0210,-0.0939,0.3219,0
9283015,0.9618,0.0018,0.0089,0.2734,-0.0121,-0.0972,0.3002,0
9283182,0.9618,0.0018,0.0089,0.2736,-0.0428,-0.1293,0.2909,0
9283348,0.9618,0.0018,0.0089,0.2738,-0.0592,-0.1328,0.3062,0
9284515,0.9614,0.0018,0.0089,0.2749,-0.0373,-0.1054,0.2989,0
9284682,0.9614,0.0017,0.0089,0.2750,-0.0288,-0.1071,0.3086,0
9285182,0.9612,0.0017,0.0089,0.2755,-0.0587,-0.0886,0.3158,0
9285348,0.9612,0.0017,0.0089,0.2757,-0.0458,-0.1100,0.3122,0
9286015,0.9610,0.0017,0.0089,0.2763,-0.0381,-0.1012,0.2959,0
9286182,0.9610,0.0017,0.0089,0.2764,-0.0285,-0.1053,0.3201,0
9286348,0.9609,0.0017,0.0090,0.2766,-0.0335,-0.1035,0.3125,0
9286682,0.9609,0.0016,0.0090,0.2769,-0.0301,-0.1119,0.3128,0
9286848,0.9608,0.0016,0.0090,0.2770,-0.0373,-0.1106,0.3084,0
9287015,0.9608,0.0016,0.0090,0.2772,-0.0372,-0.0920,0.3044,0
9287182,0.9607,0.0016,0.0090,0.2774,-0.0395,-0.1210,0.3077,0
9287348,0.9607,0.0016,0.0090,0.2776,-0.0335,-0.1214,0.3093,0
9287515,0.9606,0.0016,0.0090,0.2777,-0.0393,-0.0950,0.3026,0
9287682,0.9606,0.0016,0.0090,0.2778,-0.0429,-0.0965,0.3084,0
9287848,0.9605,0.0016,0.0090,0.2780,-0.0365,-0.1047,0.2895,0
9288182,0.9604,0.0016,0.0090,0.2784,-0.0423,-0.1063,0.3025,0
9288348,0.9604,0.0016,0.0090,0.2785,-0.0303,-0.1143,0.3060,0
9288515,0.9603,0.0016,0.0090,0.2787,-0.0347,-0.0938,0.2928,0
9288682,0.9603,0.0016,0.0090,0.2789,-0.0397,-0.0959,0.3000,0
9288848,0.9602,0.0016,0.0090,0.2790,-0.0341,-0.1119,0.2899,0
9289015,0.9602,0.0016,0.0090,0.2792,-0.0329,-0.1125,0.2962,0
9289348,0.9601,0.0016,0.0090,0.2796,-0.0237,-0.1030,0.3082,0
9290182,0.9598,0.0015,0.0090,0.2804,-0.0303,-0.1087,0.3093,0
9290348,0.9598,0.0015,0.0090,0.2806,-0.0365,-0.1164,0.3126,0
9290848,0.9596,0.0015,0.0090,0.2812,-0.0247,-0.1051,0.3089,0
9291015,0.9596,0.0015,0.0090,0.2814,-0.0146,-0.1037,0.3250,0
9291182,0.9595,0.0015,0.0090,0.2815,-0.0303,-0.1141,0.2977,0
9291348,0.9595,0.0015,0.0090,0.2817,-0.0319,-0.1206,0.3243,0
9291515,0.9594,0.0015,0.0091,0.2818,-0.0328,-0.1016,0.2919,0
9291682,0.9594,0.0015,0.0091,0.2820,-0.0255,-0.1121,0.3091,0
9292348,0.9592,0.0014,0.0091,0.2827,-0.0283,-0.1032,0.3127,0
9292515,0.9591,0.0014,0.0091,0.2828,-0.0376,-0.0926,0.3028,0
9292682,0.9591,0.0014,0.0091,0.2830,-0.0416,-0.1172,0.2994,0
9292848,0.9590,0.0014,0.0091,0.2832,-0.0264,-0.1229,0.2935,0
9293015,0.9590,0.0014,0.0091,0.2833,-0.0422,-0.1037,0.2972,0
9293182,0.9589,0.0014,0.0091,0.2835,-0.0308,-0.1012,0.3038,0
9293515,0.9589,0.0014,0.0091,0.2837,-0.0314,-0.1169,0.3001,0
9293682,0.9588,0.0014,0.0091,0.2839,-0.0443,-0.1100,0.3012,0
9293848,0.9588,0.0014,0.0091,0.2840,-0.0348,-0.0986,0.3074,0
9294015,0.9587,0.0014,0.0091,0.2842,-0.0203,-0.1010,0.3026,0
9294182,0.9587,0.0014,0.0091,0.2843,-0.0241,-0.1037,0.2995,0
9294348,0.9586,0.0014,0.0091,0.2845,-0.0413,-0.0992,0.2997,0
9294515,0.9586,0.0014,0.0091,0.2847,-0.0454,-0.1096,0.3120,0
9294682,0.9585,0.0014,0.0091,0.2848,-0.0351,-0.0952,0.3075,0
9294848,0.9585,0.0014,0.0091,0.2850,-0.0425,-0.1114,0.2874,0
9295015,0.9585,0.0014,0.0091,0.2851,-0.0210,-0.0961,0.3007,0
9295182,0.9584,0.0014,0.0091,0.2853,-0.0273,-0.1113,0.2781,0
9295348,0.9584,0.0013,0.0091,0.2854,-0.0363,-0.1068,0.3010,0
9295682,0.9582,0.0013,0.0091,0.2858,-0.0256,-0.1023,0.2955,0
9295849,0.9582,0.0013,0.0091,0.2860,-0.0361,-0.1004,0.2912,0
9296015,0.9581,0.0013,0.0091,0.2861,-0.0217,-0.1064,0.3311,0
9296182,0.9581,0.0013,0.0091,0.2863,-0.0330,-0.1030,0.2769,0
9296349,0.9581,0.0013,0.0091,0.2864,-0.0356,-0.1117,0.3123,0
9296515,0.9580,0.0013,0.0091,0.2866,-0.0404,-0.1039,0.2932,0
9296682,0.9580,0.0013,0.0091,0.2868,-0.0313,-0.1050,0.2958,0
9296849,0.9579,0.0013,0.0091,0.2870,-0.0287,-0.1040,0.3230,0
9297015,0.9578,0.0013,0.0091,0.2872,-0.0186,-0.1085,0.3087,0
9297182,0.9578,0.0013,0.0091,0.2873,-0.0326,-0.1030,0.2808,0
9297349,0.9577,0.0013,0.0091,0.2875,-0.0371,-0.0976,0.2888,0
9297515,0.9577,0.0013,0.0091,0.2877,-0.0460,-0.1074,0.3162,0
9297682,0.9576,0.0013,0.0091,0.2878,-0.0334,-0.1047,0.2749,0
9297849,0.9576,0.0013,0.0091,0.2880,-0.0251,-0.1052,0.3129,0
9298015,0.9575,0.0012,0.0091,0.2881,-0.0262,-0.1009,0.3133,0
9298349,0.9575,0.0012,0.0092,0.2884,-0.0340,-0.0831,0.3172,0
9298682,0.9574,0.0012,0.0092,0.2887,-0.0444,-0.1104,0.3027,0
9298849,0.9573,0.0012,0.0092,0.2889,-0.0423,-0.1139,0.2970,0
9299182,0.9572,0.0012,0.0092,0.2892,-0.0286,-0.0879,0.2808,0
9299349,0.9572,0.0012,0.0092,0.2894,-0.0287,-0.1002,0.2750,0
9299515,0.9571,0.0012,0.0092,0.2896,-0.0288,-0.1112,0.2821,0
9300182,0.9569,0.0012,0.0092,0.2902,-0.0154,-0.1108,0.2931,0
9300349,0.9569,0.0012,0.0092,0.2903,-0.0297,-0.1117,0.2882,0
9300515,0.9569,0.0012,0.0092,0.2904,-0.0321,-0.0996,0.2992,0
9300682,0.9568,0.0011,0.0092,0.2906,-0.0319,-0.1074,0.2975,0
9300849,0.9567,0.0011,0.0092,0.2908,-0.0339,-0.0976,0.3108,0
9301015,0.9567,0.0011,0.0092,0.2909,-0.0420,-0.1035,0.3011,0
9301349,0.9566,0.0011,0.0092,0.2913,-0.0320,-0.1122,0.2931,0
9301515,0.9565,0.0011,0.0092,0.2914,-0.0288,-0.0968,0.3149,0
9301682,0.9565,0.0011,0.0092,0.2916,-0.0258,-0.0895,0.2904,0
9301849,0.9564,0.0011,0.0092,0.2918,-0.0253,-0.0998,0.3071,0
9302015,0.9564,0.0011,0.0092,0.2920,-0.0215,-0.0955,0.3097,0
9302182,0.9563,0.0011,0.0092,0.2922,-0.0215,-0.0986,0.3135,0
9302349,0.9563,0.0011,0.0092,0.2923,-0.0293,-0.0835,0.2977,0
9302515,0.9562,0.0011,0.0092,0.2925,-0.0400,-0.1115,0.2921,0
9302682,0.9562,0.0011,0.0092,0.2926,-0.0212,-0.1123,0.2757,0
9302849,0.9561,0.0011,0.0092,0.2928,-0.0311,-0.0904,0.3064,0
9303015,0.9561,0.0011,0.0092,0.2929,-0.0343,-0.1025,0.3115,0
9303682,0.9559,0.0010,0.0092,0.2936,-0.0412,-0.0981,0.3160,0
9303849,0.9558,0.0010,0.0092,0.2938,-0.0284,-0.0937,0.2985,0
9304349,0.9557,0.0010,0.0092,0.2943,-0.0254,-0.0953,0.3016,0
9304849,0.9555,0.0010,0.0093,0.2948,-0.0139,-0.0927,0.2767,0
9305015,0.9555,0.0010,0.0093,0.2949,-0.0216,-0.1023,0.3052,0
9305515,0.9553,0.0010,0.0093,0.2954,-0.0268,-0.0948,0.3073,0
9305682,0.9553,0.0010,0.0093,0.2956,-0.0314,-0.0900,0.3399,0
9305849,0.9552,0.0010,0.0093,0.2957,-0.0267,-0.1039,0.2855,0
9306015,0.9552,0.0010,0.0093,0.2959,-0.0278,-0.1135,0.2971,0
9306349,0.9551,0.0010,0.0093,0.2961,-0.0222,-0.0986,0.2827,0
9306515,0.9551,0.0010,0.0093,0.2963,-0.0172,-0.0971,0.3016,0
9307015,0.9549,0.0010,0.0093,0.2968,-0.0211,-0.0991,0.3072,0
9307182,0.9549,0.0010,0.0093,0.2969,-0.0323,-0.1163,0.3248,0
9307682,0.9547,0.0010,0.0093,0.2974,-0.0210,-0.0985,0.2955,0
9307849,0.9547,0.0010,0.0093,0.2976,-0.0204,-0.1092,0.3088,0
9308015,0.9546,0.0010,0.0093,0.2977,-0.0351,-0.1020,0.2877,0
9308182,0.9546,0.0010,0.0093,0.2979,-0.0156,-0.0989,0.3072,0
9308349,0.9545,0.0010,0.0093,0.2981,-0.0175,-0.1089,0.3084,0
9308515,0.9545,0.0010,0.0093,0.2982,-0.0083,-0.0828,0.2920,0
9308682,0.9544,0.0010,0.0093,0.2983,-0.0248,-0.0862,0.3329,0
9308849,0.9544,0.0010,0.0093,0.2985,-0.0214,-0.1024,0.2961,0
9309182,0.9543,0.0009,0.0093,0.2988,-0.0136,-0.1057,0.3000,0
9309349,0.9542,0.0009,0.0093,0.2990,-0.0238,-0.0939,0.3006,0
9309515,0.9542,0.0009,0.0093,0.2992,-0.0389,-0.0963,0.2966,0
9310015,0.9540,0.0009,0.0093,0.2996,-0.0233,-0.1026,0.2860,0
9310682,0.9538,0.0009,0.0093,0.3003,-0.0317,-0.0988,0.2882,0
9310849,0.9538,0.0009,0.0093,0.3004,-0.0265,-0.0936,0.3097,0
9311182,0.9537,0.0009,0.0093,0.3007,-0.0324,-0.1000,0.2917,0
9311349,0.9536,0.0008,0.0093,0.3009,-0.0173,-0.0961,0.2996,0
9311515,0.9536,0.0008,0.0093,0.3010,-0.0231,-0.0886,0.3125,0
9312182,0.9533,0.0008,0.0093,0.3017,-0.0140,-0.0867,0.3203,0
9312349,0.9533,0.0008,0.0093,0.3019,-0.0247,-0.1013,0.2831,0
9312516,0.9532,0.0008,0.0093,0.3021,-0.0276,-0.1020,0.2974,0
9312682,0.9532,0.0008,0.0093,0.3023,-0.0213,-0.0979,0.3099,0
9312849,0.9531,0.0008,0.0093,0.3024,-0.0086,-0.1015,0.3004,0
9313016,0.9531,0.0008,0.0093,0.3026,-0.0267,-0.0985,0.2884,0
9313349,0.9530,0.0008,0.0093,0.3030,-0.0181,-0.1061,0.2821,0
9313516,0.9529,0.0008,0.0094,0.3031,-0.0241,-0.0889,0.3049,0
9314182,0.9527,0.0008,0.0093,0.3038,-0.0189,-0.1039,0.2812,0
9314349,0.9526,0.0008,0.0093,0.3040,-0.0215,-0.0981,0.2831,0
9314516,0.9526,0.0008,0.0093,0.3041,-0.0161,-0.0933,0.3122,0
9314849,0.9525,0.0007,0.0094,0.3044,-0.0220,-0.0993,0.3193,0
9315016,0.9524,0.0007,0.0094,0.3046,-0.0177,-0.1031,0.3169,0
9315182,0.9524,0.0007,0.0094,0.3048,-0.0252,-0.0858,0.2956,0
9315349,0.9523,0.0008,0.0094,0.3049,-0.0257,-0.0975,0.2963,0
9315516,0.9523,0.0007,0.0094,0.3051,-0.0237,-0.1031,0.2920,0
9315682,0.9522,0.0007,0.0094,0.3053,-0.0273,-0.1050,0.3163,0
9315849,0.9522,0.0007,0.0094,0.3054,-0.0324,-0.0892,0.2972,0
9316016,0.9521,0.0007,0.0094,0.3057,-0.0370,-0.0846,0.2977,0
9316349,0.9520,0.0007,0.0094,0.3060,-0.0240,-0.1107,0.2915,0
9316516,0.9519,0.0007,0.0094,0.3062,-0.0170,-0.1052,0.3070,0
9316682,0.9519,0.0007,0.0094,0.3063,-0.0190,-0.0959,0.3029,0
9316849,0.9518,0.0007,0.0094,0.3065,-0.0149,-0.0872,0.3340,0
9317016,0.9518,0.0007,0.0094,0.3067,-0.0301,-0.0881,0.3075,0
9317182,0.9517,0.0007,0.0094,0.3069,-0.0225,-0.0938,0.2990,0
9317516,0.9516,0.0006,0.0094,0.3072,-0.0099,-0.1044,0.3040,0
9317682,0.9515,0.0006,0.0094,0.3074,-0.0124,-0.1013,0.3086,0
9317849,0.9515,0.0006,0.0094,0.3075,-0.0054,-0.0975,0.2799,0
9318349,0.9513,0.0006,0.0094,0.3080,-0.0211,-0.0869,0.3283,0
9318516,0.9513,0.0006,0.0095,0.3082,-0.0234,-0.0772,0.2897,0
9318682,0.9512,0.0006,0.0095,0.3083,-0.0230,-0.1004,0.3013,0
9319016,0.9511,0.0006,0.0095,0.3087,-0.0338,-0.0893,0.2721,0
9319182,0.9511,0.0006,0.0095,0.3088,-0.0282,-0.0960,0.3165,0
9319349,0.9510,0.0006,0.0095,0.3090,-0.0236,-0.0943,0.3228,0
9319682,0.9509,0.0005,0.0095,0.3093,-0.0105,-0.0990,0.2998,0
9319849,0.9509,0.0005,0.0095,0.3095,-0.0230,-0.1021,0.2935,0
9320016,0.9508,0.0005,0.0095,0.3096,-0.0205,-0.0994,0.2869,0
9320182,0.9508,0.0005,0.0095,0.3098,-0.0228,-0.0917,0.3075,0
9320349,0.9507,0.0005,0.0095,0.3099,-0.0231,-0.0797,0.2951,0
9320516,0.9507,0.0005,0.0095,0.3101,-0.0222,-0.1148,0.2987,0
9320682,0.9506,0.0005,0.0095,0.3102,-0.0152,-0.0866,0.2824,0
9320849,0.9506,0.0005,0.0095,0.3104,-0.0060,-0.0907,0.3191,0
9321016,0.9505,0.0005,0.0095,0.3106,-0.0026,-0.0888,0.3100,0
9321182,0.9505,0.0005,0.0095,0.3107,-0.0105,-0.1078,0.2853,0
9321349,0.9504,0.0005,0.0095,0.3109,-0.0313,-0.0959,0.3074,0
9321516,0.9503,0.0005,0.0095,0.3111,-0.0285,-0.0937,0.3056,0
9321682,0.9503,0.0005,0.0095,0.3113,-0.0129,-0.0881,0.2742,0
9321849,0.9502,0.0005,0.0095,0.3114,-0.0185,-0.0922,0.2779,0
9322016,0.9502,0.0005,0.0095,0.3116,-0.0186,-0.1004,0.3225,0
9322182,0.9501,0.0005,0.0095,0.3118,-0.0103,-0.0916,0.2967,0
9322349,0.9501,0.0005,0.0095,0.3119,-0.0193,-0.0821,0.2980,0
9322516,0.9500,0.0004,0.0095,0.3121,-0.0407,-0.0943,0.3025,0
9322682,0.9500,0.0004,0.0095,0.3122,-0.0261,-0.0926,0.3005,0
9322849,0.9499,0.0004,0.0095,0.3124,-0.0190,-0.0896,0.2738,0
9323016,0.9498,0.0004,0.0095,0.3126,-0.0120,-0.1010,0.3101,0
9323182,0.9498,0.0004,0.0095,0.3127,-0.0259,-0.0994,0.2979,0
9323349,0.9497,0.0004,0.0095,0.3129,-0.0274,-0.0951,0.2934,0
9323516,0.9497,0.0004,0.0095,0.3131,-0.0354,-0.1116,0.2899,0
9323849,0.9496,0.0004,0.0095,0.3134,-0.0200,-0.0921,0.2775,0
9324016,0.9495,0.0004,0.0095,0.3135,-0.0143,-0.0909,0.2969,0
9324182,0.9495,0.0004,0.0095,0.3137,-0.0101,-0.0995,0.2946,0
9324349,0.9494,0.0004,0.0095,0.3138,-0.0273,-0.0934,0.3236,0
9324516,0.9494,0.0004,0.0095,0.3140,-0.0220,-0.0895,0.2801,0
9324682,0.9493,0.0004,0.0095,0.3142,-0.0214,-0.1070,0.3146,0
9324849,0.9493,0.0004,0.0095,0.3143,-0.0164,-0.0910,0.3005,0
9325016,0.9492,0.0004,0.0095,0.3145,-0.0055,-0.0800,0.2841,0
9325182,0.9492,0.0004,0.0095,0.3146,-0.0162,-0.0914,0.2723,0
9325349,0.9491,0.0004,0.0095,0.3148,-0.0280,-0.0934,0.3203,0
9325849,0.9489,0.0004,0.0095,0.3154,-0.0113,-0.0936,0.2980,0
9326016,0.9488,0.0004,0.0095,0.3156,-0.0134,-0.0935,0.2977,0
9326182,0.9488,0.0004,0.0095,0.3158,-0.0228,-0.1016,0.3014,0
9326349,0.9487,0.0004,0.0095,0.3160,-0.0262,-0.0881,0.3074,0
9326516,0.9487,0.0004,0.0095,0.3162,-0.0257,-0.0920,0.3003,0
9326849,0.9485,0.0003,0.0096,0.3165,-0.0121,-0.0847,0.2785,0
9327016,0.9485,0.0003,0.0096,0.3167,-0.0060,-0.0830,0.3002,0
9327182,0.9484,0.0003,0.0096,0.3168,-0.0141,-0.0962,0.2998,0
9327349,0.9484,0.0003,0.0096,0.3170,-0.0360,-0.0948,0.2783,0
9327516,0.9483,0.0003,0.0096,0.3171,-0.0289,-0.0897,0.3164,0
9327682,0.9483,0.0003,0.0096,0.3173,-0.0185,-0.1003,0.2999,0
9328016,0.9481,0.0003,0.0096,0.3178,-0.0150,-0.0782,0.3044,0
9328182,0.9481,0.0003,0.0096,0.3180,-0.0297,-0.0960,0.2959,0
9328349,0.9480,0.0003,0.0096,0.3182,-0.0304,-0.1012,0.3001,0
9328516,0.9479,0.0003,0.0096,0.3184,-0.0195,-0.0878,0.3089,0
9328849,0.9478,0.0003,0.0096,0.3187,-0.0160,-0.0915,0.2786,0
9329016,0.9478,0.0003,0.0096,0.3188,0.0009,-0.0936,0.2865,0
9329183,0.9477,0.0003,0.0096,0.3190,-0.0189,-0.0870,0.3101,0
9329516,0.9476,0.0003,0.0097,0.3193,-0.0283,-0.0770,0.2671,0
9329683,0.9475,0.0003,0.0097,0.3195,-0.0176,-0.0853,0.2924,0
9329849,0.9475,0.0002,0.0097,0.3196,-0.0185,-0.0942,0.3002,0
9330016,0.9474,0.0002,0.0097,0.3198,-0.0176,-0.0878,0.2746,0
9330349,0.9473,0.0002,0.0097,0.3202,-0.0126,-0.0956,0.2996,0
9330516,0.9473,0.0002,0.0097,0.3203,-0.0184,-0.0860,0.2890,0
9331016,0.9471,0.0002,0.0097,0.3209,-0.0160,-0.0986,0.2836,0
9331183,0.9470,0.0002,0.0097,0.3210,-0.0256,-0.0872,0.2989,0
9331349,0.9470,0.0002,0.0097,0.3212,-0.0113,-0.0936,0.3234,0
9331683,0.9469,0.0002,0.0097,0.3215,-0.0170,-0.0960,0.3158,0
9331849,0.9468,0.0002,0.0097,0.3216,-0.0281,-0.0882,0.3103,0
9332016,0.9468,0.0002,0.0097,0.3218,-0.0054,-0.0695,0.2877,0
9332183,0.9467,0.0002,0.0097,0.3220,-0.0240,-0.0721,0.2993,0
9332349,0.9466,0.0002,0.0097,0.3221,-0.0117,-0.0889,0.2939,0
9332516,0.9466,0.0002,0.0097,0.3223,-0.0228,-0.0988,0.2864,0
9332683,0.9465,0.0002,0.0097,0.3225,-0.0153,-0.0818,0.2823,0
9332849,0.9465,0.0002,0.0097,0.3227,-0.0036,-0.0864,0.3303,0
9333016,0.9464,0.0002,0.0097,0.3228,-0.0040,-0.0823,0.2813,0
9333183,0.9463,0.0001,0.0097,0.3230,0.0013,-0.0865,0.2636,0
9333349,0.9463,0.0001,0.0097,0.3232,-0.0191,-0.0906,0.3326,0
9333516,0.9462,0.0001,0.0097,0.3233,-0.0269,-0.0832,0.2905,0
9333683,0.9462,0.0001,0.0097,0.3234,-0.0208,-0.1017,0.3086,0
9333849,0.9462,0.0001,0.0097,0.3236,-0.0061,-0.0970,0.2792,0
9334016,0.9461,0.0001,0.0097,0.3238,-0.0122,-0.0859,0.3375,0
9334183,0.9460,0.0001,0.0097,0.3239,-0.0116,-0.0846,0.2959,0
9334349,0.9460,0.0001,0.0097,0.3241,-0.0237,-0.0725,0.2894,0
9334516,0.9459,0.0001,0.0098,0.3242,-0.0191,-0.0773,0.2963,0
9334683,0.9459,0.0001,0.0098,0.3244,-0.0262,-0.0797,0.2920,0
9334849,0.9458,0.0001,0.0097,0.3246,-0.0277,-0.0925,0.2968,0
9335016,0.9457,0.0001,0.0097,0.3248,-0.0088,-0.0741,0.3000,0
9335183,0.9457,0.0001,0.0097,0.3250,-0.0162,-0.0857,0.3035,0
9335349,0.9456,0.0001,0.0097,0.3251,0.0022,-0.0935,0.2911,0
9335849,0.9454,0.0001,0.0098,0.3256,-0.0168,-0.0779,0.3142,0
9336016,0.9454,0.0001,0.0098,0.3258,-0.0187,-0.0829,0.2933,0
9336183,0.9453,0.0001,0.0098,0.3260,-0.0102,-0.0951,0.2975,0
9336349,0.9453,0.0001,0.0097,0.3261,-0.0160,-0.0784,0.2857,0
9336516,0.9452,0.0000,0.0097,0.3263,-0.0169,-0.0900,0.2884,0
9336683,0.9452,0.0000,0.0098,0.3264,-0.0143,-0.0958,0.2670,0
9336849,0.9451,0.0000,0.0098,0.3266,-0.0157,-0.0930,0.2936,0
9337349,0.9449,0.0000,0.0098,0.3271,-0.0235,-0.1000,0.3212,0
9337516,0.9449,-0.0000,0.0098,0.3272,-0.0136,-0.0935,0.3016,0
9337683,0.9448,0.0000,0.0098,0.3274,-0.0169,-0.0744,0.3024,0
9337849,0.9448,-0.0000,0.0098,0.3276,-0.0144,-0.0784,0.3032,0
9338016,0.9447,0.0000,0.0098,0.3277,-0.0041,-0.0879,0.3180,0
9338183,0.9447,-0.0000,0.0098,0.3279,-0.0130,-0.0955,0.2788,0
9338349,0.9446,-0.0000,0.0098,0.3281,-0.0339,-0.0898,0.3098,0
9338516,0.9445,-0.0000,0.0098,0.3283,-0.0233,-0.0835,0.3158,0
9338683,0.9445,-0.0000,0.0097,0.3284,-0.0168,-0.0925,0.3064,0
9338849,0.9444,-0.0000,0.0098,0.3286,-0.0070,-0.0912,0.3158,0
9339016,0.9444,-0.0000,0.0098,0.3287,-0.0175,-0.0908,0.3207,0
9339183,0.9443,-0.0000,0.0098,0.3289,-0.0108,-0.0880,0.2911,0
9339349,0.9443,-0.0001,0.0097,0.3291,-0.0158,-0.0736,0.2939,0
9339516,0.9442,-0.0001,0.0098,0.3292,-0.0323,-0.0857,0.2987,0
9339683,0.9441,-0.0001,0.0098,0.3294,-0.0183,-0.0800,0.2691,0
9340016,0.9440,-0.0001,0.0098,0.3297,-0.0098,-0.0766,0.3158,0
9340183,0.9440,-0.0001,0.0098,0.3299,-0.0276,-0.0824,0.3104,0
9340349,0.9439,-0.0001,0.0098,0.3301,-0.0227,-0.0855,0.3015,0
9340516,0.9438,-0.0001,0.0098,0.3302,-0.0071,-0.0852,0.3003,0
9340683,0.9438,-0.0001,0.0098,0.3303,-0.0065,-0.0681,0.2983,0
9340849,0.9438,-0.0001,0.0098,0.3304,-0.0147,-0.0776,0.3071,0
9341016,0.9437,-0.0001,0.0098,0.3306,-0.0048,-0.0816,0.3081,0
9341183,0.9437,-0.0001,0.0098,0.3308,-0.0055,-0.0720,0.3012,0
9341516,0.9435,-0.0001,0.0098,0.3311,-0.0175,-0.0834,0.3185,0
9341683,0.9435,-0.0001,0.0098,0.3313,-0.0234,-0.0861,0.2986,0
9342349,0.9433,-0.0001,0.0098,0.3319,-0.0089,-0.0872,0.3214,0
9342516,0.9432,-0.0001,0.0098,0.3321,-0.0285,-0.0873,0.3110,0
9342683,0.9431,-0.0001,0.0098,0.3322,-0.0182,-0.0807,0.3032,0
9343016,0.9430,-0.0001,0.0098,0.3326,-0.0113,-0.0882,0.3031,0
9343683,0.9428,-0.0002,0.0098,0.3333,-0.0208,-0.0899,0.2972,0
9343849,0.9427,-0.0002,0.0098,0.3334,-0.0149,-0.0652,0.3213,0
9344516,0.9425,-0.0002,0.0098,0.3341,-0.0112,-0.0908,0.3194,0
9344683,0.9424,-0.0002,0.0098,0.3343,-0.0203,-0.0909,0.2958,0
9344849,0.9424,-0.0002,0.0098,0.3345,-0.0119,-0.0928,0.2988,0
9345183,0.9422,-0.0002,0.0098,0.3348,-0.0193,-0.0915,0.2852,0
9345349,0.9422,-0.0002,0.0098,0.3349,-0.0168,-0.0842,0.3117,0
9345516,0.9422,-0.0002,0.0098,0.3350,-0.0103,-0.0874,0.3115,0
9345683,0.9421,-0.0002,0.0098,0.3352,-0.0208,-0.0862,0.2865,0
9345850,0.9420,-0.0002,0.0098,0.3354,-0.0103,-0.0877,0.2916,0
9346016,0.9420,-0.0002,0.0098,0.3355,-0.0208,-0.0862,0.3210,0
9346683,0.9418,-0.0002,0.0098,0.3362,-0.0165,-0.0829,0.3105,0
9346850,0.9417,-0.0002,0.0098,0.3363,-0.0215,-0.0996,0.3148,0
9347016,0.9416,-0.0003,0.0098,0.3365,-0.0219,-0.0973,0.2911,0
9347183,0.9416,-0.0003,0.0098,0.3367,-0.0182,-0.0708,0.3090,0
9347350,0.9415,-0.0003,0.0098,0.3368,-0.0141,-0.0685,0.3223,0
9347516,0.9414,-0.0003,0.0098,0.3370,-0.0234,-0.0939,0.2967,0
9347850,0.9413,-0.0003,0.0098,0.3373,-0.0128,-0.0706,0.3062,0
9348016,0.9413,-0.0003,0.0098,0.3375,0.0041,-0.0773,0.3226,0
9348183,0.9412,-0.0003,0.0098,0.3377,-0.0043,-0.0671,0.2921,0
9348683,0.9410,-0.0003,0.0098,0.3381,-0.0145,-0.1042,0.3255,0
9348850,0.9410,-0.0003,0.0098,0.3383,-0.0206,-0.0935,0.2920,0
9349016,0.9409,-0.0003,0.0098,0.3385,-0.0223,-0.0838,0.3157,0
9349350,0.9408,-0.0003,0.0098,0.3388,-0.0206,-0.0759,0.3193,0
9349516,0.9407,-0.0003,0.0098,0.3390,-0.0072,-0.0790,0.2723,0
9349683,0.9407,-0.0003,0.0098,0.3392,-0.0231,-0.0934,0.3189,0
9349850,0.9406,-0.0003,0.0098,0.3394,-0.0217,-0.0772,0.2882,0
9350016,0.9405,-0.0003,0.0098,0.3396,-0.0184,-0.0654,0.3024,0
9350183,0.9405,-0.0003,0.0098,0.3398,0.0006,-0.0791,0.2977,0
9350350,0.9404,-0.0003,0.0098,0.3399,-0.0009,-0.0907,0.3021,0
9350516,0.9403,-0.0003,0.0098,0.3401,-0.0149,-0.0731,0.2702,0
9350683,0.9402,-0.0003,0.0098,0.3404,-0.0176,-0.0923,0.3129,0
9350850,0.9402,-0.0003,0.0098,0.3405,-0.0128,-0.0838,0.3097,0
9351016,0.9401,-0.0003,0.0098,0.3408,-0.0181,-0.0640,0.2896,0
9351350,0.9400,-0.0003,0.0098,0.3411,0.0013,-0.0794,0.2997,0
9351516,0.9399,-0.0004,0.0098,0.3412,-0.0234,-0.0917,0.3230,0
9351683,0.9398,-0.0004,0.0098,0.3415,-0.0054,-0.0671,0.2836,0
9352016,0.9397,-0.0004,0.0098,0.3418,-0.0132,-0.0802,0.3055,0
9352850,0.9394,-0.0004,0.0098,0.3426,-0.0099,-0.0741,0.3169,0
9353016,0.9394,-0.0004,0.0098,0.3428,-0.0157,-0.0781,0.3331,0
9353516,0.9392,-0.0004,0.0098,0.3433,-0.0239,-0.0735,0.3123,0
9353683,0.9391,-0.0004,0.0098,0.3435,-0.0184,-0.0925,0.3125,0
9353850,0.9391,-0.0004,0.0098,0.3436,-0.0055,-0.0866,0.3066,0
9354183,0.9389,-0.0005,0.0098,0.3439,-0.0191,-0.0592,0.2973,0
9354350,0.9389,-0.0005,0.0098,0.3441,-0.0089,-0.0838,0.3147,0
9354516,0.9388,-0.0005,0.0098,0.3442,-0.0050,-0.0945,0.3028,0
9354683,0.9388,-0.0005,0.0098,0.3444,-0.0097,-0.0838,0.2848,0
9354850,0.9387,-0.0005,0.0098,0.3446,-0.0064,-0.0795,0.3238,0
9355016,0.9386,-0.0005,0.0098,0.3447,-0.0179,-0.0719,0.3262,0
9355183,0.9386,-0.0005,0.0098,0.3449,-0.0258,-0.0941,0.2821,0
9355350,0.9385,-0.0005,0.0099,0.3450,-0.0304,-0.0943,0.2902,0
9355683,0.9385,-0.0005,0.0098,0.3452,0.0044,-0.0621,0.3000,0
9355850,0.9384,-0.0005,0.0098,0.3454,-0.0024,-0.0772,0.3055,0
9356516,0.9381,-0.0005,0.0099,0.3462,-0.0247,-0.0790,0.2935,0
9356683,0.9381,-0.0005,0.0098,0.3464,-0.0006,-0.0654,0.2968,0
9356850,0.9380,-0.0005,0.0099,0.3465,-0.0072,-0.0634,0.3074,0
9357183,0.9379,-0.0005,0.0099,0.3469,-0.0167,-0.0914,0.3096,0
9357350,0.9378,-0.0005,0.0098,0.3470,-0.0165,-0.0793,0.3175,0
9357516,0.9377,-0.0005,0.0098,0.3472,-0.0086,-0.0853,0.3024,0
9357683,0.9377,-0.0005,0.0098,0.3474,0.0013,-0.0949,0.3173,0
9357850,0.9376,-0.0005,0.0098,0.3476,-0.0093,-0.0689,0.3000,0
9358016,0.9375,-0.0005,0.0098,0.3478,-0.0181,-0.0867,0.2723,0
9358183,0.9375,-0.0005,0.0098,0.3479,-0.0097,-0.1052,0.3069,0
9358350,0.9374,-0.0005,0.0098,0.3481,-0.0152,-0.0717,0.2949,0
9358683,0.9373,-0.0005,0.0098,0.3485,-0.0080,-0.0674,0.3294,0
9358850,0.9372,-0.0005,0.0098,0.3486,0.0051,-0.0811,0.3238,0
9359016,0.9371,-0.0005,0.0099,0.3488,-0.0105,-0.0756,0.2822,0
9359183,0.9371,-0.0005,0.0098,0.3490,-0.0224,-0.0963,0.2944,0
9359350,0.9370,-0.0005,0.0099,0.3491,-0.0035,-0.0600,0.3218,0
9359850,0.9368,-0.0005,0.0098,0.3497,-0.0145,-0.0839,0.3293,0
9360016,0.9368,-0.0005,0.0098,0.3498,-0.0241,-0.0845,0.2713,0
9360183,0.9367,-0.0006,0.0099,0.3500,-0.0265,-0.0829,0.3104,0
9360350,0.9366,-0.0006,0.0099,0.3502,-0.0063,-0.0713,0.3062,0
9360516,0.9366,-0.0006,0.0099,0.3503,-0.0217,-0.0782,0.3198,0
9360683,0.9365,-0.0006,0.0099,0.3505,0.0042,-0.0876,0.2825,0
9361350,0.9362,-0.0006,0.0099,0.3513,-0.0168,-0.0730,0.2980,0
9361516,0.9362,-0.0006,0.0099,0.3514,-0.0090,-0.0892,0.3018,0
9361850,0.9361,-0.0006,0.0099,0.3517,0.0011,-0.0779,0.3129,0
9362016,0.9360,-0.0006,0.0099,0.3518,-0.0246,-0.0762,0.2953,0
9362183,0.9359,-0.0006,0.0099,0.3520,-0.0314,-0.0722,0.2807,0
9362350,0.9359,-0.0006,0.0099,0.3522,-0.0163,-0.0657,0.3337,0
9362517,0.9358,-0.0006,0.0099,0.3524,-0.0148,-0.0743,0.2984,0
9362683,0.9358,-0.0006,0.0099,0.3525,0.0075,-0.0849,0.3133,0
9362850,0.9357,-0.0007,0.0099,0.3527,-0.0209,-0.0849,0.3004,0
9363017,0.9356,-0.0007,0.0099,0.3528,-0.0189,-0.0799,0.3010,0
9363183,0.9356,-0.0007,0.0099,0.3530,-0.0257,-0.0820,0.2952,0
9363350,0.9355,-0.0007,0.0099,0.3531,-0.0176,-0.0783,0.3048,0
9363517,0.9355,-0.0007,0.0100,0.3532,-0.0168,-0.0889,0.3137,0
9363683,0.9354,-0.0007,0.0100,0.3534,-0.0064,-0.0749,0.3245,0
9364017,0.9353,-0.0007,0.0100,0.3537,-0.0101,-0.0690,0.2870,0
9364183,0.9352,-0.0007,0.0100,0.3539,-0.0221,-0.0798,0.3087,0
9364350,0.9352,-0.0007,0.0100,0.3540,-0.0174,-0.0752,0.2913,0
9364517,0.9351,-0.0007,0.0100,0.3542,-0.0124,-0.0905,0.2787,0
9364683,0.9350,-0.0007,0.0100,0.3544,-0.0093,-0.0876,0.3032,0
9364850,0.9350,-0.0007,0.0100,0.3546,-0.0074,-0.0816,0.2925,0
9365017,0.9349,-0.0007,0.0100,0.3548,-0.0008,-0.0600,0.2774,0
9365183,0.9348,-0.0007,0.0100,0.3550,-0.0146,-0.0779,0.2975,0
9365350,0.9348,-0.0008,0.0100,0.3551,-0.0161,-0.0914,0.2809,0
9365517,0.9347,-0.0007,0.0100,0.3553,-0.0147,-0.0950,0.2981,0
9365683,0.9346,-0.0007,0.0100,0.3555,-0.0111,-0.0782,0.2974,0
9366183,0.9344,-0.0007,0.0100,0.3560,-0.0064,-0.0797,0.2981,0
9366350,0.9344,-0.0007,0.0100,0.3562,-0.0106,-0.0790,0.2690,0
9366517,0.9343,-0.0008,0.0100,0.3564,-0.0141,-0.0893,0.3029,0
9366683,0.9342,-0.0008,0.0100,0.3565,0.0004,-0.0697,0.2958,0
9366850,0.9342,-0.0008,0.0100,0.3567,-0.0042,-0.0736,0.2730,0
9367017,0.9341,-0.0008,0.0100,0.3568,0.0000,-0.0731,0.3172,0
9367183,0.9341,-0.0008,0.0100,0.3570,0.0006,-0.0926,0.2963,0
9367350,0.9340,-0.0008,0.0100,0.3572,-0.0087,-0.0803,0.3013,0
9367517,0.9339,-0.0008,0.0100,0.3574,-0.0086,-0.0868,0.3060,0
9367683,0.9338,-0.0008,0.0100,0.3576,-0.0128,-0.0690,0.2957,0
9367850,0.9338,-0.0008,0.0100,0.3577,-0.0098,-0.0661,0.3052,0
9368017,0.9337,-0.0008,0.0100,0.3579,-0.0056,-0.0735,0.3145,0
9368517,0.9335,-0.0008,0.0100,0.3583,-0.0187,-0.0808,0.2988,0
9369183,0.9333,-0.0008,0.0100,0.3590,-0.0125,-0.0970,0.3324,0
9369350,0.9332,-0.0008,0.0100,0.3592,-0.0129,-0.0795,0.2802,0
9369683,0.9331,-0.0008,0.0100,0.3595,-0.0039,-0.0802,0.2992,0
9369850,0.9330,-0.0009,0.0100,0.3597,0.0090,-0.0781,0.3247,0
9370017,0.9329,-0.0009,0.0100,0.3599,-0.0046,-0.0737,0.2632,0
9370517,0.9328,-0.0009,0.0100,0.3604,-0.0106,-0.0730,0.2907,0
9370683,0.9327,-0.0009,0.0100,0.3605,0.0034,-0.0772,0.2953,0
9371183,0.9325,-0.0009,0.0100,0.3610,-0.0078,-0.0964,0.3059,0
9371350,0.9325,-0.0009,0.0100,0.3612,-0.0174,-0.0903,0.3083,0
9371517,0.9324,-0.0009,0.0100,0.3613,-0.0044,-0.0784,0.2737,0
9371683,0.9323,-0.0009,0.0100,0.3615,-0.0086,-0.0703,0.3288,0
9371850,0.9323,-0.0009,0.0100,0.3616,-0.0084,-0.0729,0.3101,0
9372017,0.9322,-0.0009,0.0100,0.3618,0.0027,-0.0698,0.2865,0
9372683,0.9319,-0.0009,0.0100,0.3625,-0.0056,-0.0676,0.3069,0
9372850,0.9319,-0.0009,0.0100,0.3626,0.0009,-0.0773,0.3088,0
9373350,0.9317,-0.0009,0.0100,0.3631,-0.0067,-0.0836,0.2966,0
9373517,0.9316,-0.0009,0.0100,0.3633,-0.0035,-0.0805,0.2907,0
9373683,0.9316,-0.0010,0.0100,0.3634,0.0023,-0.0803,0.3077,0
9373850,0.9315,-0.0010,0.0100,0.3636,-0.0169,-0.0719,0.3189,0
9374017,0.9314,-0.0010,0.0100,0.3637,-0.0174,-0.0780,0.2773,0
9374183,0.9314,-0.0010,0.0101,0.3639,-0.0139,-0.0878,0.2997,0
9374850,0.9311,-0.0010,0.0101,0.3646,-0.0032,-0.0612,0.3280,0
9375017,0.9311,-0.0010,0.0101,0.3647,-0.0203,-0.0829,0.2954,0
9375183,0.9310,-0.0010,0.0101,0.3650,-0.0044,-0.0702,0.2777,0
9375350,0.9309,-0.0010,0.0101,0.3651,0.0035,-0.0683,0.2970,0
9375517,0.9308,-0.0010,0.0101,0.3653,0.0010,-0.0484,0.2829,0
9375683,0.9308,-0.0010,0.0101,0.3654,0.0043,-0.0598,0.3511,0
9376017,0.9307,-0.0010,0.0101,0.3657,-0.0156,-0.0700,0.2807,0
9376183,0.9306,-0.0011,0.0101,0.3659,-0.0207,-0.0965,0.2951,0
9376350,0.9305,-0.0011,0.0100,0.3661,-0.0002,-0.0962,0.3029,0
9376850,0.9303,-0.0011,0.0101,0.3667,-0.0179,-0.0760,0.3276,0
9377017,0.9302,-0.0011,0.0101,0.3670,-0.0004,-0.0865,0.2651,0
9377183,0.9301,-0.0011,0.0101,0.3671,-0.0200,-0.0955,0.3156,0
9377517,0.9300,-0.0011,0.0101,0.3674,0.0053,-0.0769,0.2871,0
9377683,0.9299,-0.0011,0.0101,0.3676,-0.0084,-0.0783,0.2883,0
9377850,0.9299,-0.0011,0.0101,0.3677,-0.0193,-0.0735,0.3131,0
9378183,0.9298,-0.0011,0.0101,0.3680,-0.0122,-0.0782,0.3287,0
9379017,0.9294,-0.0011,0.0101,0.3688,-0.0167,-0.0624,0.2967,0
9379184,0.9294,-0.0011,0.0101,0.3690,-0.0112,-0.0753,0.2901,0
9379684,0.9292,-0.0011,0.0101,0.3695,0.0047,-0.0594,0.3051,0
9379850,0.9291,-0.0011,0.0101,0.3697,0.0026,-0.0906,0.3205,0
9380517,0.9288,-0.0011,0.0102,0.3703,0.0047,-0.0642,0.3045,0
9380684,0.9288,-0.0011,0.0102,0.3705,0.0076,-0.0600,0.2793,0
9381184,0.9286,-0.0012,0.0102,0.3710,-0.0188,-0.0720,0.3099,0
9381350,0.9285,-0.0012,0.0102,0.3712,-0.0140,-0.0668,0.3325,0
9381684,0.9284,-0.0012,0.0102,0.3716,-0.0034,-0.0810,0.3238,0
9381850,0.9283,-0.0012,0.0102,0.3718,0.0004,-0.0674,0.2783,0
9382017,0.9282,-0.0012,0.0102,0.3720,-0.0082,-0.0775,0.3072,0
9382350,0.9281,-0.0012,0.0102,0.3722,0.0034,-0.0665,0.3159,0
9382517,0.9280,-0.0012,0.0102,0.3724,-0.0039,-0.0712,0.2969,0
9382684,0.9280,-0.0012,0.0102,0.3725,0.0047,-0.0658,0.2803,0
9382850,0.9279,-0.0012,0.0102,0.3727,-0.0064,-0.0745,0.3283,0
9383184,0.9278,-0.0012,0.0102,0.3730,-0.0195,-0.0938,0.3085,0
9383350,0.9277,-0.0012,0.0102,0.3731,-0.0086,-0.0640,0.2652,0
9383850,0.9275,-0.0012,0.0102,0.3737,0.0038,-0.0816,0.3234,0
9384017,0.9274,-0.0012,0.0102,0.3738,-0.0151,-0.0690,0.2923,0
9384184,0.9274,-0.0012,0.0102,0.3740,-0.0108,-0.0655,0.3053,0
9384684,0.9271,-0.0012,0.0102,0.3746,-0.0026,-0.0752,0.3167,0
9384850,0.9270,-0.0012,0.0102,0.3748,-0.0070,-0.0717,0.2989,0
9385017,0.9270,-0.0012,0.0102,0.3750,-0.0098,-0.0629,0.3038,0
9385350,0.9268,-0.0012,0.0103,0.3753,-0.0111,-0.0610,0.2809,0
9385850,0.9267,-0.0013,0.0102,0.3757,-0.0020,-0.0773,0.2854,0
9386017,0.9266,-0.0013,0.0102,0.3759,-0.0139,-0.0826,0.2840,0
9386850,0.9263,-0.0013,0.0103,0.3767,0.0109,-0.0720,0.3020,0
9387017,0.9262,-0.0013,0.0103,0.3768,-0.0013,-0.0661,0.2990,0
9387350,0.9261,-0.0013,0.0103,0.3772,-0.0141,-0.0546,0.2906,0
9387517,0.9260,-0.0013,0.0103,0.3773,-0.0066,-0.0627,0.3052,0
9388350,0.9257,-0.0014,0.0102,0.3782,-0.0054,-0.0746,0.2917,0
9388850,0.9254,-0.0014,0.0102,0.3788,-0.0058,-0.0738,0.3243,0
9389017,0.9254,-0.0014,0.0102,0.3789,-0.0096,-0.0756,0.3125,0
9390017,0.9250,-0.0014,0.0102,0.3799,-0.0023,-0.0746,0.3227,0
9390184,0.9249,-0.0014,0.0102,0.3801,-0.0031,-0.0698,0.3083,0
9390350,0.9248,-0.0014,0.0102,0.3803,0.0006,-0.0722,0.2923,0
9390517,0.9247,-0.0014,0.0103,0.3805,0.0062,-0.0659,0.2983,0
9390684,0.9246,-0.0014,0.0103,0.3807,0.0095,-0.0714,0.2653,0
9391017,0.9245,-0.0014,0.0103,0.3810,-0.0185,-0.0679,0.3320,0
9391184,0.9244,-0.0014,0.0103,0.3812,-0.0067,-0.0639,0.2886,0
9391350,0.9244,-0.0014,0.0103,0.3813,0.0064,-0.0500,0.3125,0
9391684,0.9242,-0.0014,0.0103,0.3817,-0.0100,-0.1004,0.2932,0
9391850,0.9242,-0.0014,0.0103,0.3818,-0.0125,-0.0810,0.2750,0
9392017,0.9241,-0.0014,0.0103,0.3820,-0.0052,-0.0696,0.3370,0
9392184,0.9240,-0.0014,0.0103,0.3821,0.0002,-0.0658,0.2966,0
9392517,0.9239,-0.0015,0.0103,0.3825,0.0004,-0.0665,0.2997,0
9392684,0.9238,-0.0015,0.0103,0.3826,-0.0009,-0.0572,0.3202,0
9393184,0.9236,-0.0015,0.0103,0.3832,0.0034,-0.0787,0.2820,0
9393350,0.9235,-0.0015,0.0103,0.3833,0.0022,-0.0631,0.3138,0
9393684,0.9234,-0.0015,0.0103,0.3837,-0.0108,-0.0714,0.3075,0
9393850,0.9233,-0.0015,0.0103,0.3839,-0.0115,-0.0699,0.2830,0
9394017,0.9233,-0.0015,0.0103,0.3840,-0.0213,-0.0782,0.3357,0
9394350,0.9231,-0.0015,0.0103,0.3844,-0.0036,-0.0634,0.3216,0
9394517,0.9230,-0.0015,0.0103,0.3845,0.0044,-0.0742,0.2878,0
9394684,0.9229,-0.0015,0.0103,0.3848,0.0040,-0.0764,0.3150,0
9394850,0.9229,-0.0015,0.0103,0.3850,-0.0076,-0.0666,0.3061,0
9395017,0.9228,-0.0015,0.0103,0.3851,-0.0091,-0.0662,0.3444,0
9395184,0.9228,-0.0015,0.0103,0.3853,-0.0134,-0.0567,0.2855,0
9395350,0.9227,-0.0015,0.0103,0.3854,0.0075,-0.0540,0.3215,0
9395517,0.9226,-0.0015,0.0103,0.3856,0.0039,-0.0775,0.3166,0
9395684,0.9225,-0.0015,0.0103,0.3858,-0.0084,-0.0692,0.2856,0
9395851,0.9225,-0.0015,0.0103,0.3859,-0.0129,-0.0566,0.3123,0
9396017,0.9224,-0.0015,0.0103,0.3861,-0.0034,-0.0479,0.2996,0
9396684,0.9221,-0.0015,0.0103,0.3867,0.0092,-0.0722,0.2840,0
9396851,0.9221,-0.0015,0.0103,0.3869,0.0045,-0.0699,0.2982,0
9397351,0.9219,-0.0015,0.0103,0.3874,0.0063,-0.0597,0.2976,0
9397517,0.9218,-0.0015,0.0103,0.3876,-0.0054,-0.0628,0.3138,0
9397851,0.9216,-0.0016,0.0103,0.3879,-0.0033,-0.0592,0.2882,0
9398017,0.9216,-0.0016,0.0103,0.3881,0.0033,-0.0675,0.3166,0
9398184,0.9215,-0.0016,0.0103,0.3882,-0.0023,-0.0621,0.2905,0
9398851,0.9212,-0.0016,0.0103,0.3889,-0.0010,-0.0743,0.3328,0
9399017,0.9212,-0.0016,0.0103,0.3891,0.0167,-0.0620,0.2912,0
9399184,0.9211,-0.0016,0.0103,0.3892,0.0135,-0.0477,0.2745,0
9399351,0.9210,-0.0016,0.0103,0.3894,0.0089,-0.0615,0.3152,0
9399517,0.9209,-0.0016,0.0103,0.3895,-0.0022,-0.0624,0.2951,0
9400017,0.9207,-0.0016,0.0103,0.3901,0.0017,-0.0738,0.2947,0
9400184,0.9207,-0.0016,0.0103,0.3902,0.0069,-0.0588,0.2919,0
9400351,0.9206,-0.0016,0.0103,0.3904,-0.0018,-0.0590,0.2885,0
9400851,0.9204,-0.0016,0.0103,0.3908,-0.0039,-0.0741,0.2934,0
9401017,0.9203,-0.0016,0.0103,0.3910,0.0131,-0.0778,0.2935,0
9401184,0.9203,-0.0016,0.0103,0.3912,0.0005,-0.0652,0.3069,0
9401517,0.9201,-0.0016,0.0103,0.3915,-0.0176,-0.0749,0.2734,0
9401684,0.9200,-0.0016,0.0103,0.3917,-0.0049,-0.0782,0.3082,0
9401851,0.9200,-0.0016,0.0103,0.3918,0.0184,-0.0686,0.3025,0
9402184,0.9198,-0.0016,0.0103,0.3922,0.0073,-0.0635,0.2903,0
9402351,0.9198,-0.0016,0.0103,0.3923,-0.0029,-0.0633,0.3048,0
9402517,0.9197,-0.0016,0.0103,0.3925,-0.0025,-0.0840,0.3115,0
9403517,0.9193,-0.0017,0.0103,0.3935,-0.0028,-0.0829,0.2890,0
9404184,0.9190,-0.0017,0.0103,0.3940,-0.0043,-0.0638,0.3182,0
9404351,0.9190,-0.0017,0.0103,0.3942,0.0020,-0.0724,0.3153,0
9404517,0.9189,-0.0017,0.0103,0.3944,-0.0077,-0.0668,0.3045,0
9404684,0.9188,-0.0017,0.0103,0.3945,0.0150,-0.0646,0.3269,0
9404851,0.9188,-0.0017,0.0103,0.3947,0.0083,-0.0485,0.2919,0
9405017,0.9187,-0.0017,0.0103,0.3948,0.0134,-0.0581,0.3017,0
9405184,0.9187,-0.0017,0.0103,0.3949,0.0102,-0.0677,0.3299,0
9405351,0.9186,-0.0017,0.0103,0.3950,-0.0235,-0.0890,0.2843,0
9405684,0.9185,-0.0017,0.0103,0.3954,0.0070,-0.0659,0.3040,0
9405851,0.9184,-0.0017,0.0103,0.3956,0.0149,-0.0697,0.3035,0
9406017,0.9183,-0.0017,0.0103,0.3957,0.0062,-0.0626,0.2826,0
9406351,0.9182,-0.0017,0.0103,0.3961,-0.0021,-0.0597,0.3254,0
9407184,0.9178,-0.0017,0.0103,0.3970,-0.0059,-0.0531,0.3170,0
9407351,0.9177,-0.0017,0.0103,0.3972,-0.0009,-0.0720,0.3024,0
9407851,0.9175,-0.0018,0.0103,0.3977,-0.0005,-0.0570,0.3130,0
9408017,0.9174,-0.0018,0.0103,0.3979,-0.0032,-0.0621,0.2912,0
9408351,0.9173,-0.0018,0.0103,0.3982,-0.0055,-0.0786,0.2960,0
9408684,0.9171,-0.0018,0.0103,0.3985,0.0059,-0.0566,0.2763,0
9408851,0.9170,-0.0018,0.0103,0.3987,0.0016,-0.0627,0.2945,0
9409851,0.9166,-0.0019,0.0103,0.3996,0.0144,-0.0584,0.2917,0
9410017,0.9165,-0.0019,0.0103,0.3998,0.0050,-0.0721,0.2956,0
9410184,0.9165,-0.0019,0.0103,0.4000,-0.0177,-0.0594,0.2989,0
9410517,0.9163,-0.0019,0.0103,0.4003,0.0055,-0.0781,0.3251,0
9410684,0.9163,-0.0019,0.0103,0.4004,0.0026,-0.0592,0.2702,0
9410851,0.9162,-0.0019,0.0103,0.4006,-0.0053,-0.0491,0.2944,0
9411017,0.9161,-0.0019,0.0104,0.4008,-0.0145,-0.0611,0.3273,0
9411184,0.9160,-0.0019,0.0104,0.4010,0.0034,-0.0482,0.2798,0
9411351,0.9160,-0.0019,0.0104,0.4011,-0.0073,-0.0725,0.2850,0
9411517,0.9159,-0.0019,0.0104,0.4013,-0.0118,-0.0665,0.3233,0
9411684,0.9158,-0.0019,0.0103,0.4015,-0.0008,-0.0525,0.3022,0
9411851,0.9157,-0.0019,0.0103,0.4016,0.0231,-0.0532,0.2892,0
9412017,0.9157,-0.0019,0.0103,0.4018,0.0128,-0.0665,0.3401,0
9412184,0.9156,-0.0019,0.0103,0.4020,-0.0043,-0.0699,0.3033,0
9412351,0.9155,-0.0019,0.0103,0.4022,-0.0144,-0.0708,0.2902,0
9412684,0.9154,-0.0019,0.0103,0.4025,-0.0100,-0.0562,0.2786,0
9412851,0.9153,-0.0019,0.0103,0.4027,0.0067,-0.0742,0.3047,0
9413018,0.9152,-0.0019,0.0103,0.4029,0.0151,-0.0540,0.3229,0
9413184,0.9151,-0.0019,0.0103,0.4030,0.0055,-0.0718,0.2841,0
9413351,0.9150,-0.0019,0.0104,0.4032,-0.0060,-0.0587,0.3154,0
9413518,0.9150,-0.0019,0.0104,0.4034,0.0072,-0.0682,0.3199,0
9413684,0.9149,-0.0019,0.0103,0.4036,0.0021,-0.0637,0.3093,0
9413851,0.9148,-0.0019,0.0103,0.4037,0.0034,-0.0611,0.2970,0
9414184,0.9147,-0.0019,0.0104,0.4040,-0.0015,-0.0663,0.2967,0
9416184,0.9138,-0.0020,0.0104,0.4060,-0.0092,-0.0620,0.2811,0
9416351,0.9137,-0.0020,0.0104,0.4062,0.0018,-0.0594,0.2895,0
9416518,0.9137,-0.0020,0.0104,0.4063,0.0018,-0.0668,0.3064,0
9416684,0.9136,-0.0020,0.0104,0.4065,0.0072,-0.0484,0.3042,0
9416851,0.9135,-0.0020,0.0104,0.4066,0.0082,-0.0495,0.3035,0
9417018,0.9134,-0.0020,0.0104,0.4068,0.0009,-0.0587,0.3108,0
9417184,0.9134,-0.0020,0.0104,0.4070,-0.0049,-0.0588,0.3001,0
9417351,0.9133,-0.0020,0.0104,0.4071,0.0008,-0.0586,0.3101,0
9417684,0.9132,-0.0020,0.0104,0.4075,0.0090,-0.0506,0.2697,0
9417851,0.9131,-0.0021,0.0104,0.4076,-0.0136,-0.0712,0.2721,0
9418018,0.9130,-0.0021,0.0104,0.4077,-0.0006,-0.0618,0.3158,0
9418351,0.9129,-0.0021,0.0104,0.4081,0.0069,-0.0583,0.3010,0
9418518,0.9128,-0.0021,0.0104,0.4082,-0.0093,-0.0499,0.2981,0
9418684,0.9127,-0.0021,0.0104,0.4084,-0.0019,-0.0646,0.3264,0
9418851,0.9127,-0.0021,0.0104,0.4086,-0.0132,-0.0586,0.3091,0
9419018,0.9126,-0.0021,0.0104,0.4087,0.0022,-0.0689,0.2996,0
9419184,0.9125,-0.0021,0.0104,0.4088,-0.0053,-0.0473,0.2861,0
9419351,0.9125,-0.0021,0.0104,0.4090,0.0119,-0.0545,0.2907,0
9419518,0.9124,-0.0021,0.0104,0.4092,0.0057,-0.0672,0.3189,0
9419684,0.9123,-0.0021,0.0104,0.4093,0.0080,-0.0570,0.2920,0
9419851,0.9122,-0.0021,0.0104,0.4095,-0.0065,-0.0503,0.2919,0
9420018,0.9122,-0.0021,0.0104,0.4097,-0.0023,-0.0607,0.3029,0
9420184,0.9121,-0.0021,0.0104,0.4098,0.0012,-0.0824,0.3168,0
9420351,0.9120,-0.0021,0.0104,0.4100,-0.0053,-0.0667,0.3195,0
9420518,0.9120,-0.0021,0.0104,0.4102,-0.0008,-0.0543,0.2984,0
9420684,0.9119,-0.0021,0.0104,0.4103,0.0068,-0.0564,0.3050,0
9420851,0.9118,-0.0021,0.0104,0.4105,0.0030,-0.0444,0.3250,0
9421018,0.9117,-0.0021,0.0104,0.4107,0.0137,-0.0635,0.2895,0
9421184,0.9117,-0.0021,0.0104,0.4108,-0.0007,-0.0695,0.2926,0
9421351,0.9116,-0.0022,0.0104,0.4110,0.0047,-0.0568,0.3331,0
9421518,0.9115,-0.0022,0.0104,0.4112,0.0131,-0.0560,0.2884,0
9421684,0.9114,-0.0022,0.0104,0.4114,0.0055,-0.0531,0.2959,0
9421851,0.9113,-0.0022,0.0104,0.4116,-0.0007,-0.0698,0.2949,0
9422018,0.9112,-0.0022,0.0104,0.4117,0.0063,-0.0631,0.2933,0
9422184,0.9112,-0.0022,0.0104,0.4119,-0.0011,-0.0639,0.3278,0
9422351,0.9111,-0.0022,0.0104,0.4121,-0.0071,-0.0617,0.3145,0
9422518,0.9110,-0.0022,0.0105,0.4123,0.0149,-0.0586,0.2738,0
9422684,0.9109,-0.0022,0.0105,0.4125,0.0060,-0.0426,0.2979,0
9422851,0.9108,-0.0022,0.0105,0.4126,-0.0004,-0.0634,0.3088,0
9423018,0.9108,-0.0022,0.0105,0.4127,-0.0062,-0.0491,0.2835,0
9423184,0.9108,-0.0022,0.0105,0.4128,-0.0012,-0.0603,0.3110,0
9423351,0.9107,-0.0022,0.0105,0.4129,0.0160,-0.0524,0.3155,0
9423518,0.9106,-0.0022,0.0105,0.4131,0.0125,-0.0391,0.2839,0
9423684,0.9105,-0.0022,0.0105,0.4133,-0.0080,-0.0575,0.2877,0
9423851,0.9105,-0.0022,0.0105,0.4134,0.0100,-0.0633,0.3300,0
9424518,0.9102,-0.0022,0.0105,0.4140,-0.0015,-0.0412,0.2977,0
9424684,0.9101,-0.0022,0.0105,0.4142,0.0149,-0.0671,0.3297,0
9424851,0.9100,-0.0022,0.0105,0.4144,0.0023,-0.0673,0.3035,0
9425018,0.9100,-0.0022,0.0105,0.4145,-0.0020,-0.0511,0.2801,0
9425184,0.9099,-0.0022,0.0105,0.4147,0.0021,-0.0609,0.3173,0
9425351,0.9098,-0.0022,0.0105,0.4149,0.0176,-0.0645,0.2997,0
9425518,0.9097,-0.0022,0.0105,0.4150,0.0012,-0.0705,0.2688,0
9425684,0.9097,-0.0022,0.0105,0.4152,0.0085,-0.0492,0.2829,0
9425851,0.9096,-0.0022,0.0105,0.4153,0.0061,-0.0761,0.3004,0
9426184,0.9094,-0.0022,0.0105,0.4157,-0.0004,-0.0578,0.3146,0
9426351,0.9094,-0.0022,0.0105,0.4159,0.0047,-0.0481,0.2802,0
9426518,0.9093,-0.0022,0.0105,0.4160,0.0062,-0.0464,0.2990,0
9427018,0.9090,-0.0023,0.0105,0.4166,0.0024,-0.0568,0.3084,0
9427184,0.9090,-0.0023,0.0105,0.4167,0.0088,-0.0491,0.3221,0
9427351,0.9089,-0.0023,0.0105,0.4169,0.0187,-0.0564,0.3049,0
9427684,0.9087,-0.0023,0.0105,0.4172,0.0166,-0.0542,0.3106,0
9427851,0.9087,-0.0023,0.0105,0.4174,0.0057,-0.0659,0.3075,0
9428018,0.9086,-0.0023,0.0105,0.4175,-0.0041,-0.0578,0.3157,0
9428184,0.9085,-0.0023,0.0106,0.4177,0.0067,-0.0604,0.2892,0
9428351,0.9084,-0.0023,0.0106,0.4179,0.0058,-0.0485,0.2902,0
9429185,0.9081,-0.0023,0.0106,0.4186,0.0111,-0.0542,0.3021,0
9429351,0.9080,-0.0023,0.0106,0.4187,0.0011,-0.0575,0.2959,0
9429518,0.9080,-0.0023,0.0106,0.4189,0.0086,-0.0514,0.3065,0
9429685,0.9079,-0.0023,0.0106,0.4190,0.0075,-0.0567,0.2856,0
9430351,0.9076,-0.0023,0.0106,0.4197,0.0162,-0.0578,0.3044,0
9430518,0.9075,-0.0023,0.0106,0.4198,-0.0013,-0.0400,0.3172,0
9431185,0.9072,-0.0023,0.0106,0.4205,0.0166,-0.0585,0.2877,0
9431351,0.9071,-0.0023,0.0106,0.4207,0.0079,-0.0593,0.2851,0
