DeviceTag: Xsens DOT3,FirmwareVersion: 2.2.1,AppVersion: 2022.2.0,SyncStatus: Unknown (Synced/Un-synced),OutputRate: 60,FilterProfile: Unknown,Measurement Mode: Sensor fusion Mode - Extended (Quaternion),StartTime: 2023-06-01 19:39:13.616,© Movella Technologies B.V. 2005-2023
SampleTimeFine,Quat_W,Quat_X,Quat_Y,Quat_Z,FreeAcc_X,FreeAcc_Y,FreeAcc_Z,Status
13046033,0.6991,-0.1662,-0.6736,-0.1728,-0.0319,0.0438,0.1355,0
13046200,0.6993,-0.1661,-0.6734,-0.1729,-0.0290,0.0227,0.1317,0
13046366,0.6995,-0.1659,-0.6733,-0.1729,-0.0193,0.0080,0.1278,0
13046533,0.6996,-0.1657,-0.6732,-0.1726,0.0028,0.0085,0.1274,0
13046700,0.6997,-0.1656,-0.6733,-0.1725,-0.0033,-0.0063,0.1244,0
13046866,0.6996,-0.1656,-0.6733,-0.1723,-0.0127,0.0163,0.1313,0
13047033,0.6996,-0.1655,-0.6735,-0.1720,-0.0108,0.0140,0.1390,0
13047200,0.6996,-0.1653,-0.6736,-0.1717,-0.0013,0.0143,0.1449,0
13047366,0.6996,-0.1653,-0.6737,-0.1715,-0.0092,0.0199,0.1309,0
13047533,0.6996,-0.1651,-0.6738,-0.1712,-0.0062,0.0132,0.1267,0
13047700,0.6995,-0.1650,-0.6739,-0.1709,-0.0212,0.0270,0.1310,0
13047866,0.6995,-0.1648,-0.6741,-0.1706,-0.0234,0.0247,0.1357,0
13048033,0.6995,-0.1647,-0.6742,-0.1703,-0.0259,0.0285,0.1327,0
13048200,0.6995,-0.1646,-0.6743,-0.1700,-0.0080,0.0265,0.1364,0
13048366,0.6995,-0.1644,-0.6745,-0.1697,0.0001,0.0225,0.1117,0
13048533,0.6995,-0.1642,-0.6746,-0.1694,-0.0217,0.0570,0.1232,0
13048700,0.6994,-0.1641,-0.6747,-0.1691,-0.0165,0.0395,0.1333,0
13048866,0.6994,-0.1640,-0.6749,-0.1688,-0.0043,0.0135,0.1325,0
13049033,0.6994,-0.1638,-0.6750,-0.1685,-0.0187,0.0446,0.1364,0
13049200,0.6994,-0.1637,-0.6751,-0.1683,-0.0439,0.0518,0.1286,0
13049366,0.6993,-0.1636,-0.6752,-0.1680,-0.0257,0.0527,0.1279,0
13049533,0.6993,-0.1634,-0.6754,-0.1677,-0.0484,0.0513,0.1309,0
13049700,0.6993,-0.1633,-0.6755,-0.1674,-0.0017,0.0439,0.1280,0
13049866,0.6993,-0.1631,-0.6756,-0.1671,-0.0220,0.0462,0.1296,0
13050033,0.6993,-0.1629,-0.6758,-0.1668,-0.0291,0.0621,0.1386,0
13050200,0.6993,-0.1628,-0.6759,-0.1664,-0.0575,0.0627,0.1347,0
13050366,0.6992,-0.1626,-0.6760,-0.1661,-0.0409,0.0716,0.1411,0
13050533,0.6992,-0.1625,-0.6762,-0.1659,-0.0354,0.0568,0.1159,0
13050700,0.6992,-0.1623,-0.6763,-0.1655,-0.0396,0.0593,0.1401,0
13050866,0.6992,-0.1622,-0.6764,-0.1652,-0.0410,0.0475,0.1544,0
13051033,0.6991,-0.1620,-0.6766,-0.1649,-0.0502,0.0791,0.1298,0
13051200,0.6991,-0.1619,-0.6767,-0.1646,-0.0344,0.0711,0.1381,0
13051366,0.6991,-0.1617,-0.6768,-0.1643,-0.0508,0.0735,0.1250,0
13051533,0.6991,-0.1616,-0.6770,-0.1640,-0.0511,0.0797,0.1302,0
13051700,0.6991,-0.1614,-0.6771,-0.1637,-0.0558,0.0780,0.1287,0
13051867,0.6990,-0.1613,-0.6772,-0.1634,-0.0528,0.0915,0.1383,0
13052033,0.6990,-0.1611,-0.6774,-0.1631,-0.0484,0.0788,0.1378,0
13052200,0.6990,-0.1610,-0.6775,-0.1628,-0.0566,0.0888,0.1356,0
13052367,0.6990,-0.1608,-0.6776,-0.1625,-0.0589,0.0856,0.1337,0
13052533,0.6989,-0.1607,-0.6777,-0.1622,-0.0634,0.0965,0.1435,0
13052700,0.6989,-0.1605,-0.6779,-0.1619,-0.0663,0.0996,0.1352,0
13052867,0.6989,-0.1604,-0.6780,-0.1616,-0.0647,0.0957,0.1341,0
13053033,0.6989,-0.1603,-0.6781,-0.1613,-0.0567,0.0877,0.1363,0
13053200,0.6989,-0.1601,-0.6782,-0.1610,-0.0731,0.0991,0.1261,0
13053367,0.6989,-0.1599,-0.6784,-0.1607,-0.0651,0.0954,0.1344,0
13053533,0.6988,-0.1598,-0.6785,-0.1604,-0.0884,0.1160,0.1389,0
13053700,0.6988,-0.1597,-0.6786,-0.1601,-0.0839,0.1157,0.1342,0
13053867,0.6988,-0.1595,-0.6787,-0.1598,-0.0810,0.1050,0.1316,0
13054033,0.6988,-0.1594,-0.6789,-0.1595,-0.0841,0.1085,0.1273,0
13054200,0.6988,-0.1592,-0.6790,-0.1592,-0.0813,0.1167,0.1460,0
13054367,0.6987,-0.1591,-0.6791,-0.1590,-0.0929,0.1295,0.1292,0
13054533,0.6987,-0.1589,-0.6792,-0.1586,-0.0693,0.1290,0.1303,0
13054700,0.6987,-0.1588,-0.6794,-0.1584,-0.0802,0.1335,0.1315,0
13054867,0.6987,-0.1587,-0.6795,-0.1581,-0.0891,0.1340,0.1283,0
13055033,0.6987,-0.1585,-0.6796,-0.1578,-0.0821,0.1401,0.1318,0
13055200,0.6987,-0.1584,-0.6797,-0.1575,-0.0797,0.1476,0.1278,0
13055367,0.6986,-0.1582,-0.6798,-0.1572,-0.0795,0.1337,0.1362,0
13055533,0.6986,-0.1581,-0.6799,-0.1569,-0.0766,0.1220,0.1387,0
13055700,0.6986,-0.1579,-0.6801,-0.1566,-0.0836,0.1261,0.1433,0
13055867,0.6986,-0.1578,-0.6802,-0.1563,-0.1077,0.1515,0.1385,0
13056033,0.6986,-0.1577,-0.6803,-0.1561,-0.0933,0.1461,0.1205,0
13056200,0.6985,-0.1575,-0.6804,-0.1558,-0.0870,0.1441,0.1251,0
13056367,0.6985,-0.1574,-0.6805,-0.1555,-0.0922,0.1400,0.1285,0
13056533,0.6985,-0.1572,-0.6806,-0.1552,-0.0895,0.1458,0.1084,0
13056700,0.6985,-0.1571,-0.6808,-0.1549,-0.0971,0.1381,0.1440,0
13056867,0.6985,-0.1570,-0.6809,-0.1547,-0.1152,0.1681,0.1248,0
13057033,0.6984,-0.1568,-0.6810,-0.1544,-0.0992,0.1521,0.1340,0
13057200,0.6984,-0.1567,-0.6811,-0.1541,-0.0956,0.1516,0.1306,0
13057367,0.6984,-0.1566,-0.6812,-0.1539,-0.1029,0.1523,0.1271,0
13057533,0.6984,-0.1564,-0.6813,-0.1536,-0.1022,0.1540,0.1404,0
13057700,0.6984,-0.1563,-0.6814,-0.1533,-0.1119,0.1624,0.1341,0
13057867,0.6984,-0.1562,-0.6815,-0.1530,-0.1312,0.1641,0.1258,0
13058033,0.6983,-0.1560,-0.6816,-0.1528,-0.1026,0.1735,0.1311,0
13058200,0.6983,-0.1559,-0.6817,-0.1525,-0.1226,0.1720,0.1347,0
13058367,0.6983,-0.1558,-0.6818,-0.1522,-0.1151,0.1814,0.1262,0
13058533,0.6983,-0.1556,-0.6820,-0.1520,-0.1028,0.1792,0.1186,0
13058700,0.6983,-0.1555,-0.6821,-0.1517,-0.1099,0.1781,0.1302,0
13058867,0.6983,-0.1554,-0.6822,-0.1515,-0.1017,0.1666,0.1244,0
13059033,0.6983,-0.1553,-0.6822,-0.1512,-0.1203,0.1932,0.1137,0
13059200,0.6982,-0.1551,-0.6824,-0.1509,-0.1314,0.1797,0.1383,0
13059367,0.6982,-0.1550,-0.6825,-0.1507,-0.1229,0.1783,0.1186,0
13059533,0.6982,-0.1549,-0.6826,-0.1504,-0.1115,0.1900,0.1321,0
13059700,0.6982,-0.1548,-0.6826,-0.1502,-0.1275,0.1811,0.1272,0
13059867,0.6982,-0.1547,-0.6827,-0.1500,-0.1313,0.1964,0.1291,0
13060033,0.6982,-0.1545,-0.6828,-0.1497,-0.1291,0.1900,0.1464,0
13060200,0.6981,-0.1544,-0.6829,-0.1495,-0.1246,0.1930,0.1280,0
13060367,0.6981,-0.1543,-0.6830,-0.1492,-0.1302,0.1904,0.1149,0
13060533,0.6981,-0.1542,-0.6831,-0.1490,-0.1164,0.1941,0.1241,0
13060700,0.6981,-0.1541,-0.6832,-0.1487,-0.1359,0.2041,0.1167,0
13060867,0.6981,-0.1540,-0.6833,-0.1485,-0.1507,0.2157,0.1371,0
13061033,0.6981,-0.1538,-0.6834,-0.1483,-0.1416,0.2045,0.1295,0
13061200,0.6980,-0.1537,-0.6835,-0.1480,-0.1469,0.2151,0.1267,0
13061367,0.6980,-0.1536,-0.6836,-0.1478,-0.1362,0.2098,0.1269,0
13061533,0.6980,-0.1535,-0.6837,-0.1476,-0.1255,0.2049,0.1374,0
13061700,0.6980,-0.1534,-0.6838,-0.1473,-0.1440,0.2044,0.1306,0
13061867,0.6980,-0.1533,-0.6838,-0.1471,-0.1317,0.2113,0.1247,0
13062033,0.6980,-0.1532,-0.6839,-0.1469,-0.1316,0.2088,0.1287,0
13062200,0.6980,-0.1531,-0.6840,-0.1467,-0.1336,0.2103,0.1268,0
13062367,0.6980,-0.1530,-0.6841,-0.1465,-0.1437,0.2183,0.1256,0
13062533,0.6980,-0.1529,-0.6842,-0.1463,-0.1360,0.2188,0.1278,0
13062700,0.6980,-0.1527,-0.6842,-0.1461,-0.1426,0.2287,0.1205,0
13062867,0.6980,-0.1526,-0.6843,-0.1459,-0.1348,0.2168,0.1372,0
13063033,0.6979,-0.1525,-0.6844,-0.1456,-0.1522,0.2371,0.1217,0
13063200,0.6979,-0.1524,-0.6845,-0.1454,-0.1508,0.2205,0.1219,0
13063367,0.6979,-0.1523,-0.6845,-0.1452,-0.1310,0.2319,0.1243,0
13063533,0.6979,-0.1522,-0.6846,-0.1450,-0.1445,0.2313,0.1207,0
13063700,0.6979,-0.1521,-0.6847,-0.1449,-0.1557,0.2229,0.1341,0
13063867,0.6979,-0.1520,-0.6848,-0.1447,-0.1817,0.2392,0.1314,0
13064033,0.6979,-0.1519,-0.6848,-0.1445,-0.1783,0.2410,0.1373,0
13064200,0.6979,-0.1518,-0.6849,-0.1443,-0.1676,0.2456,0.1194,0
13064367,0.6979,-0.1517,-0.6850,-0.1441,-0.1501,0.2335,0.1237,0
13064533,0.6979,-0.1516,-0.6850,-0.1439,-0.1580,0.2209,0.1317,0
13064700,0.6979,-0.1515,-0.6851,-0.1438,-0.1431,0.2249,0.1207,0
13064867,0.6979,-0.1514,-0.6852,-0.1436,-0.1481,0.2440,0.1277,0
13065033,0.6979,-0.1513,-0.6852,-0.1434,-0.1625,0.2511,0.1371,0
13065200,0.6979,-0.1512,-0.6853,-0.1432,-0.1553,0.2450,0.1256,0
13065367,0.6978,-0.1511,-0.6853,-0.1431,-0.1579,0.2468,0.1294,0
13065533,0.6978,-0.1511,-0.6854,-0.1429,-0.1702,0.2464,0.1271,0
13065700,0.6978,-0.1510,-0.6854,-0.1428,-0.1902,0.2400,0.1232,0
13065867,0.6978,-0.1509,-0.6855,-0.1426,-0.1562,0.2549,0.1309,0
13066033,0.6978,-0.1508,-0.6855,-0.1425,-0.1554,0.2460,0.1446,0
13066200,0.6979,-0.1507,-0.6856,-0.1423,-0.1817,0.2475,0.1293,0
13066367,0.6979,-0.1506,-0.6856,-0.1421,-0.1540,0.2517,0.1288,0
13066533,0.6979,-0.1505,-0.6857,-0.1420,-0.1624,0.2446,0.1338,0
13066700,0.6979,-0.1505,-0.6857,-0.1419,-0.1773,0.2531,0.1257,0
13066867,0.6979,-0.1504,-0.6858,-0.1417,-0.1789,0.2526,0.1474,0
13067033,0.6979,-0.1503,-0.6858,-0.1416,-0.1738,0.2484,0.1228,0
13067200,0.6979,-0.1502,-0.6859,-0.1414,-0.1458,0.2366,0.1313,0
13067367,0.6979,-0.1501,-0.6859,-0.1413,-0.1787,0.2405,0.1212,0
13067533,0.6979,-0.1501,-0.6860,-0.1412,-0.1604,0.2510,0.1283,0
13067700,0.6979,-0.1500,-0.6860,-0.1411,-0.1548,0.2561,0.1231,0
13067867,0.6979,-0.1499,-0.6860,-0.1409,-0.1654,0.2543,0.1294,0
13068033,0.6979,-0.1498,-0.6861,-0.1408,-0.1633,0.2526,0.1270,0
13068200,0.6979,-0.1498,-0.6861,-0.1407,-0.1551,0.2416,0.1195,0
13068367,0.6979,-0.1497,-0.6861,-0.1406,-0.1713,0.2571,0.1363,0
13068534,0.6979,-0.1496,-0.6862,-0.1404,-0.1637,0.2628,0.1319,0
13068700,0.6979,-0.1496,-0.6862,-0.1403,-0.1674,0.2566,0.1297,0
13068867,0.6979,-0.1495,-0.6862,-0.1402,-0.1626,0.2591,0.1211,0
13069034,0.6979,-0.1494,-0.6863,-0.1401,-0.1703,0.2645,0.1255,0
13069200,0.6979,-0.1494,-0.6863,-0.1400,-0.1794,0.2593,0.1388,0
13069367,0.6979,-0.1493,-0.6863,-0.1399,-0.1650,0.2711,0.1241,0
13069534,0.6979,-0.1493,-0.6863,-0.1398,-0.1703,0.2694,0.1244,0
13069700,0.6979,-0.1492,-0.6864,-0.1397,-0.1722,0.2637,0.1271,0
13069867,0.6979,-0.1492,-0.6864,-0.1397,-0.1751,0.2581,0.1287,0
13070034,0.6980,-0.1491,-0.6864,-0.1396,-0.1766,0.2643,0.1152,0
13070200,0.6980,-0.1490,-0.6864,-0.1395,-0.1456,0.2579,0.1178,0
13070367,0.6980,-0.1490,-0.6864,-0.1394,-0.1813,0.2548,0.1244,0
13070534,0.6980,-0.1489,-0.6865,-0.1393,-0.1824,0.2721,0.1301,0
13070700,0.6980,-0.1489,-0.6865,-0.1392,-0.1946,0.2762,0.1326,0
13070867,0.6980,-0.1488,-0.6865,-0.1392,-0.1743,0.2760,0.1199,0
13071034,0.6980,-0.1487,-0.6865,-0.1391,-0.1763,0.2635,0.1143,0
13071200,0.6980,-0.1487,-0.6865,-0.1390,-0.1780,0.2670,0.1417,0
13071367,0.6981,-0.1486,-0.6865,-0.1390,-0.1832,0.2683,0.1242,0
13071534,0.6981,-0.1486,-0.6865,-0.1389,-0.1884,0.2810,0.1392,0
13071700,0.6981,-0.1485,-0.6865,-0.1388,-0.1749,0.2748,0.1417,0
13071867,0.6981,-0.1485,-0.6865,-0.1388,-0.1677,0.2630,0.1312,0
13072034,0.6981,-0.1484,-0.6865,-0.1387,-0.2000,0.2814,0.1138,0
13072200,0.6982,-0.1484,-0.6865,-0.1386,-0.1798,0.2694,0.1220,0
13072367,0.6982,-0.1483,-0.6865,-0.1386,-0.1774,0.2699,0.1230,0
13072534,0.6982,-0.1483,-0.6865,-0.1386,-0.1553,0.2608,0.1259,0
13072700,0.6982,-0.1483,-0.6866,-0.1385,-0.1610,0.2575,0.1309,0
13072867,0.6982,-0.1482,-0.6865,-0.1385,-0.1710,0.2650,0.1407,0
13073034,0.6982,-0.1482,-0.6865,-0.1385,-0.1728,0.2723,0.1335,0
13073200,0.6982,-0.1482,-0.6865,-0.1384,-0.1789,0.2720,0.1372,0
13073367,0.6983,-0.1481,-0.6865,-0.1384,-0.1533,0.2601,0.1155,0
13073534,0.6983,-0.1481,-0.6865,-0.1384,-0.1658,0.2680,0.1253,0
13073700,0.6983,-0.1481,-0.6865,-0.1384,-0.1704,0.2608,0.1292,0
13073867,0.6983,-0.1481,-0.6865,-0.1384,-0.1816,0.2828,0.1280,0
13074034,0.6983,-0.1480,-0.6865,-0.1383,-0.1792,0.2538,0.1307,0
13074200,0.6983,-0.1480,-0.6865,-0.1383,-0.1667,0.2706,0.1330,0
13074367,0.6984,-0.1480,-0.6865,-0.1383,-0.1730,0.2654,0.1212,0
13074534,0.6984,-0.1479,-0.6865,-0.1383,-0.1814,0.2608,0.1401,0
13074700,0.6984,-0.1479,-0.6865,-0.1383,-0.1704,0.2701,0.1281,0
13074867,0.6984,-0.1479,-0.6865,-0.1383,-0.1523,0.2528,0.1271,0
13075034,0.6984,-0.1479,-0.6865,-0.1383,-0.1610,0.2489,0.1203,0
13075200,0.6984,-0.1479,-0.6864,-0.1383,-0.1884,0.2646,0.1319,0
13075367,0.6984,-0.1478,-0.6864,-0.1383,-0.1722,0.2660,0.1385,0
13075534,0.6985,-0.1478,-0.6864,-0.1383,-0.1588,0.2566,0.1332,0
13075700,0.6985,-0.1478,-0.6864,-0.1383,-0.1609,0.2601,0.1280,0
13075867,0.6985,-0.1478,-0.6864,-0.1383,-0.1593,0.2536,0.1267,0
13076034,0.6985,-0.1478,-0.6864,-0.1383,-0.1770,0.2639,0.1479,0
13076200,0.6985,-0.1477,-0.6864,-0.1383,-0.1626,0.2511,0.1253,0
13076367,0.6985,-0.1477,-0.6863,-0.1384,-0.1725,0.2459,0.1235,0
13076534,0.6986,-0.1477,-0.6863,-0.1384,-0.1562,0.2588,0.1278,0
13076700,0.6986,-0.1477,-0.6863,-0.1384,-0.1572,0.2618,0.1276,0
13076867,0.6986,-0.1477,-0.6863,-0.1384,-0.1750,0.2652,0.1231,0
13077034,0.6986,-0.1477,-0.6862,-0.1384,-0.1684,0.2482,0.1249,0
13077200,0.6987,-0.1477,-0.6862,-0.1385,-0.1767,0.2647,0.1308,0
13077367,0.6987,-0.1477,-0.6862,-0.1385,-0.1552,0.2460,0.1296,0
13077534,0.6987,-0.1477,-0.6862,-0.1385,-0.1628,0.2538,0.1281,0
13077700,0.6987,-0.1477,-0.6862,-0.1385,-0.1851,0.2503,0.1351,0
13077867,0.6987,-0.1477,-0.6861,-0.1386,-0.1613,0.2453,0.1301,0
13078034,0.6987,-0.1477,-0.6861,-0.1386,-0.1814,0.2592,0.1295,0
13078200,0.6988,-0.1477,-0.6861,-0.1386,-0.1442,0.2641,0.1251,0
13078367,0.6988,-0.1477,-0.6860,-0.1387,-0.1816,0.2913,0.1381,0
13078534,0.6988,-0.1477,-0.6860,-0.1387,-0.1470,0.2628,0.1318,0
13078700,0.6988,-0.1477,-0.6860,-0.1388,-0.1430,0.2363,0.1441,0
13078867,0.6988,-0.1477,-0.6860,-0.1388,-0.1474,0.2253,0.1220,0
13079034,0.6988,-0.1477,-0.6859,-0.1389,-0.1526,0.2429,0.1360,0
13079200,0.6989,-0.1477,-0.6859,-0.1389,-0.1485,0.2450,0.1241,0
13079367,0.6989,-0.1477,-0.6859,-0.1390,-0.1690,0.2521,0.1312,0
13079534,0.6989,-0.1478,-0.6858,-0.1390,-0.1425,0.2425,0.1265,0
13079700,0.6989,-0.1478,-0.6858,-0.1391,-0.1539,0.2361,0.1141,0
13079867,0.6989,-0.1478,-0.6858,-0.1391,-0.1799,0.2666,0.1300,0
13080034,0.6990,-0.1478,-0.6857,-0.1392,-0.1588,0.2040,0.1341,0
13080200,0.6990,-0.1478,-0.6857,-0.1393,-0.1440,0.2605,0.0950,0
13080367,0.6990,-0.1478,-0.6857,-0.1394,-0.1953,0.2275,0.1977,0
13080534,0.6990,-0.1478,-0.6856,-0.1394,-0.1228,0.2715,0.0430,0
13080700,0.6990,-0.1479,-0.6856,-0.1395,-0.1273,0.2398,0.1790,0
13080867,0.6990,-0.1479,-0.6856,-0.1396,-0.1771,0.2376,0.0925,0
13081034,0.6990,-0.1479,-0.6855,-0.1397,-0.1462,0.2598,0.1367,0
13081200,0.6991,-0.1479,-0.6855,-0.1397,-0.1691,0.2422,0.1349,0
13081367,0.6991,-0.1480,-0.6855,-0.1398,-0.1660,0.2484,0.1089,0
13081534,0.6991,-0.1480,-0.6854,-0.1399,-0.1184,0.2492,0.1459,0
13081700,0.6991,-0.1480,-0.6854,-0.1399,-0.1788,0.2328,0.1243,0
13081867,0.6991,-0.1480,-0.6853,-0.1400,-0.1251,0.2414,0.1171,0
13082034,0.6992,-0.1481,-0.6853,-0.1401,-0.1681,0.2222,0.1355,0
13082200,0.6992,-0.1481,-0.6853,-0.1402,-0.1373,0.2582,0.1198,0
13082367,0.6992,-0.1481,-0.6852,-0.1402,-0.1213,0.2378,0.1127,0
13082534,0.6992,-0.1482,-0.6852,-0.1403,-0.1523,0.2442,0.1179,0
13082700,0.6992,-0.1482,-0.6851,-0.1404,-0.1406,0.2188,0.1413,0
13082867,0.6992,-0.1483,-0.6851,-0.1405,-0.1251,0.2284,0.0990,0
13083034,0.6993,-0.1483,-0.6850,-0.1406,-0.1431,0.2380,0.1434,0
13083200,0.6993,-0.1483,-0.6850,-0.1407,-0.1518,0.2176,0.1318,0
13083367,0.6993,-0.1484,-0.6850,-0.1408,-0.1181,0.2482,0.1254,0
13083534,0.6993,-0.1484,-0.6849,-0.1408,-0.1427,0.2513,0.1309,0
13083700,0.6993,-0.1485,-0.6848,-0.1409,-0.1401,0.2338,0.0898,0
13083867,0.6994,-0.1486,-0.6848,-0.1410,-0.1147,0.2379,0.1459,0
13084034,0.6994,-0.1486,-0.6847,-0.1411,-0.1411,0.2209,0.1721,0
13084200,0.6994,-0.1487,-0.6847,-0.1412,-0.1096,0.2273,0.1114,0
13084367,0.6994,-0.1487,-0.6847,-0.1414,-0.1321,0.2180,0.1607,0
13084534,0.6994,-0.1487,-0.6846,-0.1415,-0.1287,0.2072,0.1183,0
13084700,0.6994,-0.1488,-0.6846,-0.1416,-0.0976,0.2268,0.1483,0
13084867,0.6994,-0.1488,-0.6845,-0.1417,-0.1507,0.2310,0.1057,0
13085034,0.6994,-0.1489,-0.6845,-0.1418,-0.1407,0.2550,0.1428,0
13085201,0.6994,-0.1489,-0.6844,-0.1419,-0.1420,0.2353,0.1035,0
13085367,0.6994,-0.1490,-0.6844,-0.1420,-0.1243,0.2278,0.1278,0
13085534,0.6995,-0.1490,-0.6844,-0.1421,-0.1187,0.2019,0.1190,0
13085701,0.7010,-0.1616,-0.6737,-0.1691,-0.0029,0.0041,0.1367,0
13085867,0.7010,-0.1616,-0.6737,-0.1691,-0.0173,-0.0028,0.1641,0
13086034,0.7010,-0.1616,-0.6737,-0.1691,0.0132,0.0094,0.0953,0
13086201,0.7010,-0.1617,-0.6737,-0.1692,-0.0088,-0.0159,0.1369,0
13086367,0.7010,-0.1617,-0.6737,-0.1692,-0.0074,-0.0133,0.1503,0
13086534,0.7010,-0.1617,-0.6737,-0.1692,-0.0055,0.0111,0.1098,0
13086701,0.7010,-0.1618,-0.6737,-0.1693,-0.0069,0.0053,0.1325,0
13086867,0.7009,-0.1618,-0.6737,-0.1693,-0.0168,-0.0126,0.1435,0
13087034,0.7009,-0.1618,-0.6737,-0.1693,0.0176,-0.0258,0.1137,0
13087201,0.7009,-0.1619,-0.6737,-0.1694,0.0267,0.0016,0.1316,0
13087367,0.7009,-0.1619,-0.6736,-0.1694,-0.0010,-0.0079,0.1515,0
13087534,0.7009,-0.1619,-0.6736,-0.1694,0.0059,-0.0056,0.1437,0
13087701,0.7009,-0.1620,-0.6736,-0.1694,-0.0039,0.0221,0.1142,0
13087867,0.7009,-0.1620,-0.6736,-0.1695,-0.0148,-0.0256,0.1572,0
13088034,0.7009,-0.1620,-0.6736,-0.1695,0.0093,-0.0136,0.1358,0
13088201,0.7009,-0.1620,-0.6736,-0.1695,0.0075,0.0007,0.1306,0
13088367,0.7009,-0.1621,-0.6736,-0.1695,-0.0246,0.0127,0.1188,0
13088534,0.7009,-0.1621,-0.6736,-0.1696,0.0110,-0.0024,0.1360,0
13088701,0.7009,-0.1621,-0.6736,-0.1696,0.0172,-0.0200,0.1196,0
13088867,0.7009,-0.1621,-0.6736,-0.1696,0.0179,-0.0326,0.1922,0
13089034,0.7009,-0.1621,-0.6736,-0.1696,0.0076,-0.0030,0.0667,0
13089201,0.7009,-0.1622,-0.6736,-0.1697,-0.0129,0.0340,0.1619,0
13089367,0.7008,-0.1622,-0.6736,-0.1697,-0.0265,0.0076,0.1308,0
13089534,0.7008,-0.1622,-0.6736,-0.1697,0.0125,0.0105,0.1252,0
13089701,0.7008,-0.1622,-0.6736,-0.1698,0.0110,-0.0227,0.1282,0
13089867,0.7008,-0.1623,-0.6736,-0.1698,-0.0258,-0.0096,0.1095,0
13090034,0.7008,-0.1623,-0.6736,-0.1698,0.0017,-0.0047,0.1463,0
13090201,0.7008,-0.1623,-0.6736,-0.1699,-0.0222,-0.0073,0.1075,0
13090367,0.7008,-0.1623,-0.6736,-0.1699,0.0129,0.0055,0.1469,0
13090534,0.7008,-0.1624,-0.6735,-0.1699,-0.0210,0.0111,0.1261,0
13090701,0.7008,-0.1624,-0.6735,-0.1699,-0.0094,0.0051,0.1358,0
13090867,0.7008,-0.1624,-0.6735,-0.1699,-0.0157,0.0058,0.1412,0
13091034,0.7008,-0.1624,-0.6735,-0.1700,-0.0289,-0.0004,0.1223,0
13091201,0.7008,-0.1625,-0.6735,-0.1700,-0.0183,0.0014,0.1354,0
13091367,0.7008,-0.1625,-0.6735,-0.1700,0.0023,0.0095,0.1222,0
13091534,0.7008,-0.1625,-0.6735,-0.1700,-0.0176,0.0092,0.1499,0
13091701,0.7008,-0.1625,-0.6735,-0.1701,0.0034,0.0076,0.1194,0
13091867,0.7007,-0.1625,-0.6735,-0.1701,-0.0021,-0.0009,0.1425,0
13092034,0.7007,-0.1626,-0.6735,-0.1701,0.0024,0.0083,0.1447,0
13092201,0.7007,-0.1626,-0.6735,-0.1701,-0.0097,-0.0062,0.1434,0
13092367,0.7007,-0.1626,-0.6735,-0.1702,0.0009,-0.0079,0.1303,0
13092534,0.7007,-0.1626,-0.6735,-0.1702,0.0069,0.0035,0.1287,0
13092701,0.7007,-0.1626,-0.6735,-0.1702,-0.0126,0.0065,0.1356,0
13092867,0.7007,-0.1627,-0.6735,-0.1702,-0.0032,0.0020,0.1461,0
13093034,0.7007,-0.1627,-0.6735,-0.1702,0.0210,-0.0130,0.1216,0
13093201,0.7007,-0.1627,-0.6734,-0.1702,-0.0108,0.0039,0.1288,0
13093367,0.7007,-0.1627,-0.6734,-0.1703,0.0128,0.0210,0.1296,0
13093534,0.7007,-0.1628,-0.6734,-0.1703,-0.0093,0.0071,0.1268,0
13093701,0.7007,-0.1628,-0.6734,-0.1703,-0.0091,0.0009,0.1348,0
13093867,0.7007,-0.1628,-0.6734,-0.1703,0.0040,-0.0075,0.1246,0
13094034,0.7007,-0.1628,-0.6734,-0.1703,0.0037,-0.0125,0.1332,0
13094201,0.7007,-0.1628,-0.6734,-0.1704,0.0067,-0.0058,0.1151,0
13094367,0.7007,-0.1629,-0.6734,-0.1704,0.0053,-0.0090,0.1371,0
13094534,0.7007,-0.1629,-0.6734,-0.1704,0.0145,-0.0056,0.1313,0
13094701,0.7007,-0.1629,-0.6734,-0.1704,0.0095,-0.0099,0.1238,0
13094867,0.7007,-0.1629,-0.6734,-0.1704,0.0136,0.0034,0.1238,0
13095034,0.7007,-0.1630,-0.6734,-0.1704,-0.0036,0.0089,0.1392,0
13095201,0.7007,-0.1630,-0.6734,-0.1704,-0.0096,0.0278,0.1250,0
13095367,0.7007,-0.1630,-0.6734,-0.1704,-0.0161,0.0258,0.1302,0
13095534,0.7007,-0.1630,-0.6734,-0.1704,-0.0061,0.0133,0.1432,0
13095701,0.7007,-0.1630,-0.6733,-0.1705,0.0157,-0.0090,0.1321,0
13095867,0.7007,-0.1631,-0.6733,-0.1705,0.0094,-0.0146,0.1363,0
13096034,0.7007,-0.1631,-0.6733,-0.1705,-0.0031,0.0029,0.1417,0
13096201,0.7007,-0.1631,-0.6733,-0.1705,-0.0220,0.0077,0.1124,0
13096367,0.7007,-0.1631,-0.6733,-0.1705,0.0057,0.0203,0.1378,0
13096534,0.7007,-0.1631,-0.6733,-0.1706,-0.0007,0.0064,0.1273,0
13096701,0.7006,-0.1631,-0.6733,-0.1706,0.0165,-0.0185,0.1512,0
13096867,0.7006,-0.1632,-0.6733,-0.1706,0.0070,-0.0038,0.1073,0
13097034,0.7006,-0.1632,-0.6733,-0.1706,-0.0162,-0.0050,0.1638,0
13097201,0.7006,-0.1632,-0.6733,-0.1707,0.0179,0.0203,0.0985,0
13097367,0.7006,-0.1632,-0.6733,-0.1707,-0.0147,-0.0090,0.1595,0
13097534,0.7006,-0.1632,-0.6733,-0.1707,-0.0094,0.0020,0.1097,0
13097701,0.7006,-0.1633,-0.6733,-0.1707,0.0026,-0.0126,0.1220,0
13097867,0.7006,-0.1633,-0.6733,-0.1707,0.0190,-0.0021,0.1170,0
13098034,0.7006,-0.1633,-0.6733,-0.1707,-0.0169,0.0031,0.1328,0
13098201,0.7006,-0.1633,-0.6733,-0.1708,-0.0145,0.0139,0.1258,0
13098367,0.7006,-0.1633,-0.6733,-0.1708,0.0132,0.0018,0.1262,0
13098534,0.7006,-0.1633,-0.6733,-0.1708,-0.0011,-0.0095,0.1333,0
13098701,0.7006,-0.1633,-0.6733,-0.1708,-0.0077,-0.0014,0.1177,0
13098867,0.7006,-0.1634,-0.6733,-0.1708,0.0191,0.0156,0.1018,0
13099034,0.7006,-0.1634,-0.6732,-0.1708,-0.0192,0.0065,0.1291,0
13099201,0.7006,-0.1634,-0.6732,-0.1708,-0.0160,-0.0032,0.1610,0
13099367,0.7006,-0.1634,-0.6732,-0.1708,-0.0032,0.0061,0.1266,0
13099534,0.7006,-0.1634,-0.6732,-0.1709,-0.0042,-0.0187,0.1354,0
13099701,0.7006,-0.1635,-0.6732,-0.1709,0.0121,-0.0044,0.1302,0
13099867,0.7006,-0.1635,-0.6732,-0.1709,-0.0218,-0.0168,0.1459,0
13100034,0.7006,-0.1635,-0.6732,-0.1709,-0.0210,0.0156,0.1325,0
13100201,0.7006,-0.1635,-0.6732,-0.1709,-0.0133,0.0374,0.1141,0
13100367,0.7211,0.0004,-0.6928,-0.0004,-0.0156,0.0060,0.1328,0
13100534,0.7211,0.0004,-0.6928,-0.0004,-0.0054,0.0055,0.1168,0
13100701,0.7211,0.0003,-0.6928,-0.0004,0.0399,-0.0171,0.1397,0
13100867,0.7212,0.0003,-0.6928,-0.0004,0.0415,-0.0220,0.1109,0
13101034,0.7212,0.0003,-0.6928,-0.0004,-0.0040,-0.0094,0.1518,0
13101201,0.7212,0.0003,-0.6928,-0.0004,-0.0286,0.0070,0.1304,0
13101367,0.7212,0.0003,-0.6928,-0.0004,-0.0084,0.0141,0.1224,0
13101534,0.7211,0.0002,-0.6928,-0.0004,0.0135,-0.0066,0.1473,0
13101701,0.7212,0.0002,-0.6928,-0.0004,0.0241,-0.0146,0.1191,0
13101868,0.7212,0.0002,-0.6928,-0.0004,0.0013,0.0081,0.1315,0
13102034,0.7212,0.0002,-0.6928,-0.0004,-0.0221,0.0004,0.1534,0
13102201,0.7212,0.0002,-0.6928,-0.0005,0.0036,0.0114,0.1290,0
13102368,0.7212,0.0002,-0.6928,-0.0005,0.0071,-0.0173,0.1354,0
13102534,0.7211,0.0002,-0.6928,-0.0005,0.0076,-0.0226,0.1246,0
13102701,0.7212,0.0002,-0.6928,-0.0005,0.0188,0.0152,0.1205,0
13102868,0.7212,0.0001,-0.6928,-0.0005,-0.0167,0.0012,0.1055,0
13103034,0.7212,0.0001,-0.6928,-0.0005,-0.0262,0.0052,0.1360,0
13103201,0.7212,0.0001,-0.6928,-0.0005,-0.0230,0.0141,0.1364,0
13103368,0.7212,0.0001,-0.6928,-0.0005,0.0110,-0.0040,0.1354,0
13103534,0.7212,0.0001,-0.6928,-0.0006,0.0093,-0.0054,0.1227,0
13103701,0.7211,0.0001,-0.6928,-0.0006,0.0146,-0.0122,0.1401,0
13103868,0.7212,0.0000,-0.6928,-0.0006,0.0009,0.0012,0.1122,0
13104034,0.7211,0.0000,-0.6928,-0.0006,0.0218,0.0018,0.1351,0
13104201,0.7211,0.0000,-0.6928,-0.0006,-0.0137,0.0052,0.1275,0
13104368,0.7211,0.0000,-0.6928,-0.0007,-0.0081,0.0147,0.1130,0
13104534,0.7212,-0.0000,-0.6928,-0.0007,-0.0170,0.0003,0.1314,0
13104701,0.7212,-0.0000,-0.6928,-0.0007,-0.0250,0.0006,0.1189,0
13104868,0.7211,-0.0000,-0.6928,-0.0007,0.0023,0.0086,0.1307,0
13105034,0.7212,-0.0001,-0.6928,-0.0007,0.0068,0.0092,0.1198,0
13105201,0.7212,-0.0001,-0.6928,-0.0007,-0.0013,-0.0084,0.1344,0
13105368,0.7212,-0.0001,-0.6928,-0.0007,-0.0147,-0.0003,0.1336,0
13105534,0.7212,-0.0001,-0.6928,-0.0007,-0.0062,-0.0096,0.1459,0
13105701,0.7212,-0.0001,-0.6928,-0.0009,0.0013,0.0010,0.1372,0
13105868,0.7212,-0.0001,-0.6928,-0.0009,-0.0128,0.0065,0.1236,0
13106034,0.7212,-0.0001,-0.6928,-0.0009,0.0175,-0.0108,0.1269,0
13106201,0.7212,-0.0001,-0.6928,-0.0009,0.0120,-0.0169,0.1262,0
13106368,0.7212,-0.0001,-0.6928,-0.0009,0.0119,0.0016,0.1242,0
13106534,0.7212,-0.0001,-0.6928,-0.0009,0.0209,-0.0067,0.1331,0
13106701,0.7212,-0.0001,-0.6928,-0.0010,0.0021,-0.0126,0.1428,0
13106868,0.7212,-0.0001,-0.6928,-0.0010,0.0159,0.0046,0.1251,0
13107034,0.7212,-0.0001,-0.6928,-0.0010,-0.0072,0.0215,0.1430,0
13107201,0.7212,-0.0002,-0.6928,-0.0010,-0.0093,0.0078,0.1072,0
13107368,0.7212,-0.0002,-0.6928,-0.0010,-0.0182,-0.0395,0.1710,0
13107534,0.7212,-0.0002,-0.6928,-0.0010,-0.0067,0.0260,0.0540,0
13107701,0.7212,-0.0002,-0.6928,-0.0010,-0.0014,-0.0407,0.1873,0
13107868,0.7212,-0.0002,-0.6928,-0.0010,0.0117,0.0138,0.0771,0
13108034,0.7211,-0.0002,-0.6928,-0.0010,-0.0058,0.0015,0.1595,0
13108201,0.7211,-0.0002,-0.6928,-0.0010,-0.0128,-0.0100,0.1191,0
13108368,0.7211,-0.0002,-0.6928,-0.0010,0.0297,0.0062,0.1232,0
13108534,0.7211,-0.0002,-0.6928,-0.0011,0.0046,-0.0093,0.1360,0
13108701,0.7211,-0.0003,-0.6928,-0.0011,-0.0133,0.0003,0.1192,0
13108868,0.7211,-0.0003,-0.6928,-0.0011,-0.0115,0.0003,0.1454,0
13109034,0.7211,-0.0003,-0.6928,-0.0011,0.0013,0.0034,0.1237,0
13109201,0.7211,-0.0003,-0.6928,-0.0010,0.0266,0.0115,0.1293,0
13109368,0.7211,-0.0003,-0.6928,-0.0011,-0.0157,-0.0022,0.1508,0
13109534,0.7211,-0.0003,-0.6928,-0.0011,-0.0140,0.0199,0.1264,0
13109701,0.7211,-0.0003,-0.6928,-0.0011,-0.0114,-0.0085,0.1539,0
13109868,0.7211,-0.0003,-0.6928,-0.0011,-0.0005,-0.0034,0.1421,0
13110034,0.7211,-0.0003,-0.6928,-0.0011,0.0100,0.0040,0.1296,0
13110201,0.7211,-0.0004,-0.6928,-0.0011,0.0212,-0.0006,0.1371,0
13110368,0.7211,-0.0004,-0.6928,-0.0011,-0.0098,0.0047,0.1144,0
13110534,0.7211,-0.0004,-0.6928,-0.0011,0.0105,0.0150,0.1280,0
13110701,0.7211,-0.0004,-0.6928,-0.0011,-0.0323,-0.0065,0.1569,0
13110868,0.7211,-0.0004,-0.6928,-0.0011,0.0194,-0.0103,0.1315,0
13111034,0.7211,-0.0004,-0.6928,-0.0012,-0.0079,-0.0123,0.1151,0
13111201,0.7211,-0.0004,-0.6928,-0.0012,-0.0081,-0.0052,0.1070,0
13111368,0.7211,-0.0004,-0.6928,-0.0012,0.0097,-0.0104,0.1582,0
13111534,0.7211,-0.0004,-0.6928,-0.0012,0.0035,0.0157,0.1148,0
13111701,0.7211,-0.0004,-0.6928,-0.0012,-0.0028,-0.0182,0.1393,0
13111868,0.7211,-0.0004,-0.6928,-0.0012,-0.0082,0.0150,0.1128,0
13112034,0.7211,-0.0005,-0.6928,-0.0012,0.0007,-0.0140,0.1452,0
13112201,0.7211,-0.0005,-0.6928,-0.0012,-0.0079,0.0176,0.1202,0
13112368,0.7211,-0.0005,-0.6928,-0.0012,0.0059,0.0019,0.1303,0
13112534,0.7212,-0.0005,-0.6928,-0.0012,-0.0152,-0.0023,0.1219,0
13112701,0.7211,-0.0005,-0.6928,-0.0012,-0.0121,0.0060,0.1222,0
13112868,0.7211,-0.0005,-0.6928,-0.0012,0.0101,-0.0079,0.1320,0
13113034,0.7211,-0.0005,-0.6928,-0.0012,0.0003,0.0005,0.1399,0
13113201,0.7211,-0.0005,-0.6928,-0.0012,-0.0058,0.0017,0.1377,0
13113368,0.7211,-0.0005,-0.6928,-0.0013,-0.0205,-0.0006,0.1412,0
13113534,0.7211,-0.0005,-0.6928,-0.0013,0.0148,-0.0127,0.1352,0
13113701,0.7211,-0.0005,-0.6928,-0.0013,0.0116,0.0051,0.1172,0
13113868,0.7211,-0.0005,-0.6928,-0.0013,0.0147,-0.0017,0.1348,0
13114034,0.7211,-0.0005,-0.6928,-0.0013,0.0013,-0.0052,0.1318,0
13114201,0.7211,-0.0005,-0.6928,-0.0013,-0.0189,-0.0177,0.1409,0
13114368,0.7211,-0.0005,-0.6928,-0.0013,0.0101,0.0090,0.1228,0
13114534,0.7211,-0.0006,-0.6928,-0.0013,-0.0182,0.0070,0.1189,0
13114701,0.7212,-0.0006,-0.6928,-0.0013,-0.0113,-0.0005,0.1415,0
13114868,0.7211,-0.0006,-0.6928,-0.0013,-0.0158,-0.0290,0.1555,0
13115034,0.7211,-0.0006,-0.6928,-0.0013,0.0312,-0.0017,0.0976,0
13115201,0.7211,-0.0006,-0.6928,-0.0013,0.0135,-0.0244,0.1470,0
13115368,0.7212,-0.0006,-0.6928,-0.0014,-0.0007,0.0000,0.1171,0
13115534,0.7211,-0.0006,-0.6928,-0.0014,-0.0001,0.0139,0.1464,0
13115701,0.7211,-0.0006,-0.6928,-0.0014,0.0052,-0.0140,0.1307,0
13115868,0.7211,-0.0006,-0.6928,-0.0014,0.0214,-0.0084,0.1326,0
13116034,0.7211,-0.0006,-0.6928,-0.0014,0.0017,-0.0054,0.1297,0
13116201,0.7212,-0.0006,-0.6928,-0.0014,-0.0079,0.0017,0.1222,0
13116368,0.7212,-0.0006,-0.6928,-0.0014,0.0061,0.0142,0.1293,0
13116534,0.7211,-0.0006,-0.6928,-0.0014,0.0064,-0.0056,0.1329,0
13116701,0.7212,-0.0006,-0.6928,-0.0014,0.0196,0.0126,0.1325,0
13116868,0.7212,-0.0007,-0.6928,-0.0014,-0.0085,-0.0037,0.1179,0
13117034,0.7212,-0.0007,-0.6928,-0.0014,0.0236,0.0009,0.1339,0
13117201,0.7212,-0.0007,-0.6928,-0.0015,0.0042,-0.0012,0.1188,0
13117368,0.7212,-0.0007,-0.6928,-0.0015,-0.0166,-0.0087,0.1408,0
13117534,0.7212,-0.0007,-0.6928,-0.0015,0.0038,0.0088,0.1229,0
13117701,0.7212,-0.0007,-0.6928,-0.0015,-0.0257,-0.0066,0.1446,0
13117868,0.7212,-0.0007,-0.6928,-0.0015,-0.0166,-0.0030,0.1230,0
13118034,0.7212,-0.0007,-0.6928,-0.0015,0.0036,-0.0066,0.1370,0
13118201,0.7212,-0.0007,-0.6928,-0.0015,0.0255,0.0167,0.1322,0
13118368,0.7212,-0.0007,-0.6928,-0.0015,-0.0079,-0.0093,0.1292,0
13118535,0.7212,-0.0007,-0.6928,-0.0015,0.0000,0.0019,0.1291,0
13118701,0.7212,-0.0007,-0.6928,-0.0015,-0.0008,-0.0091,0.1284,0
13118868,0.7212,-0.0007,-0.6928,-0.0015,-0.0158,0.0121,0.1253,0
13119035,0.7212,-0.0007,-0.6928,-0.0015,-0.0111,-0.0063,0.1359,0
13119201,0.7212,-0.0007,-0.6928,-0.0015,0.0118,0.0014,0.1334,0
13119368,0.7212,-0.0008,-0.6928,-0.0015,-0.0050,-0.0063,0.1350,0
13119535,0.7212,-0.0008,-0.6928,-0.0015,0.0021,0.0063,0.1287,0
13119701,0.7212,-0.0008,-0.6927,-0.0016,-0.0137,-0.0007,0.1257,0
13119868,0.7212,-0.0008,-0.6927,-0.0016,-0.0052,-0.0024,0.1272,0
13120035,0.7212,-0.0008,-0.6927,-0.0016,0.0160,0.0019,0.1290,0
13120201,0.7212,-0.0008,-0.6927,-0.0016,-0.0036,-0.0052,0.1367,0
13120368,0.7212,-0.0008,-0.6927,-0.0016,0.0223,0.0103,0.1256,0
13120535,0.7212,-0.0008,-0.6927,-0.0016,-0.0020,-0.0068,0.1391,0
13120701,0.7212,-0.0008,-0.6927,-0.0016,-0.0055,-0.0041,0.1334,0
13120868,0.7212,-0.0008,-0.6927,-0.0016,-0.0156,-0.0084,0.1373,0
13121035,0.7212,-0.0008,-0.6927,-0.0016,-0.0164,0.0030,0.1285,0
13121201,0.7212,-0.0009,-0.6927,-0.0016,0.0001,0.0006,0.1349,0
13121368,0.7212,-0.0009,-0.6927,-0.0016,0.0078,-0.0005,0.1292,0
13121535,0.7212,-0.0009,-0.6927,-0.0016,0.0084,-0.0079,0.1396,0
13121701,0.7212,-0.0009,-0.6927,-0.0016,0.0032,0.0060,0.1394,0
13121868,0.7212,-0.0009,-0.6927,-0.0016,0.0028,-0.0016,0.1227,0
13122035,0.7212,-0.0009,-0.6927,-0.0016,-0.0024,0.0013,0.1365,0
13122201,0.7212,-0.0009,-0.6927,-0.0016,0.0149,-0.0021,0.1259,0
13122368,0.7212,-0.0009,-0.6927,-0.0016,0.0218,-0.0007,0.1158,0
13122535,0.7212,-0.0009,-0.6927,-0.0017,0.0213,0.0057,0.1163,0
13122701,0.7212,-0.0009,-0.6927,-0.0017,0.0113,0.0118,0.1393,0
13122868,0.7212,-0.0009,-0.6927,-0.0017,-0.0071,0.0303,0.0798,0
13123035,0.7212,-0.0010,-0.6927,-0.0017,-0.0048,-0.0539,0.1746,0
13123201,0.7212,-0.0010,-0.6927,-0.0017,0.0459,0.0156,0.0987,0
13123368,0.7212,-0.0010,-0.6927,-0.0017,-0.0114,-0.0119,0.1606,0
13123535,0.7212,-0.0010,-0.6927,-0.0017,-0.0433,0.0188,0.1091,0
13123701,0.7212,-0.0010,-0.6927,-0.0017,-0.0293,0.0175,0.1474,0
13123868,0.7212,-0.0010,-0.6927,-0.0017,0.0184,-0.0142,0.1056,0
13124035,0.7212,-0.0010,-0.6927,-0.0017,0.0166,-0.0273,0.1401,0
13124201,0.7213,-0.0010,-0.6927,-0.0017,0.0491,-0.0110,0.0998,0
13124368,0.7212,-0.0010,-0.6927,-0.0017,-0.0156,0.0007,0.1737,0
13124535,0.7212,-0.0010,-0.6927,-0.0017,-0.0417,0.0126,0.1108,0
13124701,0.7212,-0.0010,-0.6927,-0.0018,0.0307,-0.0052,0.1321,0
13124868,0.7212,-0.0010,-0.6927,-0.0018,0.0234,-0.0221,0.1432,0
13125035,0.7212,-0.0010,-0.6927,-0.0018,-0.0112,0.0009,0.1215,0
13125201,0.7212,-0.0010,-0.6927,-0.0018,-0.0184,0.0032,0.1401,0
13125368,0.7212,-0.0010,-0.6927,-0.0018,-0.0036,0.0178,0.1252,0
13125535,0.7212,-0.0010,-0.6927,-0.0018,0.0082,-0.0122,0.1382,0
13125701,0.7212,-0.0010,-0.6927,-0.0019,0.0151,-0.0210,0.1310,0
13125868,0.7212,-0.0010,-0.6927,-0.0019,0.0104,-0.0037,0.1358,0
13126035,0.7212,-0.0010,-0.6927,-0.0019,0.0036,-0.0071,0.1285,0
13126201,0.7212,-0.0010,-0.6927,-0.0019,-0.0019,0.0221,0.1253,0
13126368,0.7212,-0.0010,-0.6927,-0.0019,0.0029,-0.0102,0.1299,0
13126535,0.7212,-0.0010,-0.6927,-0.0019,0.0112,-0.0101,0.1456,0
13126701,0.7212,-0.0010,-0.6927,-0.0019,0.0115,-0.0079,0.1219,0
13126868,0.7212,-0.0010,-0.6927,-0.0019,0.0003,-0.0082,0.1316,0
13127035,0.7212,-0.0010,-0.6927,-0.0019,-0.0082,-0.0009,0.1308,0
13127201,0.7212,-0.0010,-0.6927,-0.0019,-0.0073,0.0051,0.1393,0
13127368,0.7212,-0.0010,-0.6927,-0.0019,0.0301,-0.0035,0.1421,0
13127535,0.7212,-0.0010,-0.6927,-0.0019,-0.0011,0.0113,0.1325,0
13127701,0.7212,-0.0010,-0.6927,-0.0020,-0.0134,0.0136,0.1352,0
13127868,0.7212,-0.0011,-0.6927,-0.0020,0.0071,0.0025,0.1349,0
13128035,0.7212,-0.0011,-0.6927,-0.0020,-0.0007,-0.0041,0.1132,0
13128201,0.7212,-0.0011,-0.6927,-0.0020,0.0243,0.0026,0.1123,0
13128368,0.7212,-0.0011,-0.6927,-0.0020,0.0084,-0.0037,0.1379,0
13128535,0.7212,-0.0011,-0.6927,-0.0020,0.0032,-0.0059,0.1302,0
13128701,0.7212,-0.0011,-0.6927,-0.0020,0.0095,-0.0073,0.1293,0
13128868,0.7212,-0.0011,-0.6927,-0.0020,0.0195,-0.0198,0.1392,0
13129035,0.7212,-0.0011,-0.6927,-0.0020,0.0195,-0.0108,0.1347,0
13129201,0.7212,-0.0011,-0.6927,-0.0020,0.0188,0.0013,0.1319,0
13129368,0.7212,-0.0011,-0.6927,-0.0020,-0.0209,-0.0062,0.1259,0
13129535,0.7212,-0.0011,-0.6927,-0.0020,0.0001,-0.0014,0.1355,0
13129701,0.7212,-0.0011,-0.6927,-0.0020,-0.0183,0.0047,0.1297,0
13129868,0.7212,-0.0011,-0.6927,-0.0021,0.0067,-0.0008,0.1395,0
13130035,0.7212,-0.0011,-0.6927,-0.0021,0.0173,0.0017,0.1127,0
13130201,0.7212,-0.0011,-0.6927,-0.0021,0.0134,0.0040,0.1341,0
13130368,0.7212,-0.0011,-0.6927,-0.0021,0.0238,0.0053,0.1313,0
13130535,0.7212,-0.0012,-0.6927,-0.0021,0.0065,0.0125,0.1345,0
13130701,0.7212,-0.0012,-0.6927,-0.0021,0.0099,-0.0020,0.1374,0
13130868,0.7212,-0.0012,-0.6927,-0.0021,-0.0087,-0.0037,0.1394,0
13131035,0.7212,-0.0012,-0.6927,-0.0021,-0.0062,-0.0021,0.1378,0
13131201,0.7212,-0.0012,-0.6927,-0.0021,-0.0114,0.0011,0.1232,0
13131368,0.7212,-0.0012,-0.6927,-0.0021,0.0111,-0.0014,0.1278,0
13131535,0.7212,-0.0012,-0.6927,-0.0021,0.0353,-0.0102,0.1558,0
13131701,0.7212,-0.0012,-0.6927,-0.0021,0.0135,0.0048,0.1214,0
13131868,0.7212,-0.0012,-0.6927,-0.0021,-0.0063,-0.0018,0.1376,0
13132035,0.7213,-0.0012,-0.6927,-0.0021,-0.0046,-0.0095,0.1421,0
13132201,0.7213,-0.0012,-0.6927,-0.0021,0.0133,-0.0078,0.1260,0
13132368,0.7213,-0.0012,-0.6927,-0.0021,-0.0015,-0.0054,0.1353,0
13132535,0.7213,-0.0012,-0.6927,-0.0022,-0.0210,0.0059,0.1417,0
13132701,0.7213,-0.0012,-0.6927,-0.0022,-0.0238,0.0134,0.1258,0
13132868,0.7213,-0.0012,-0.6927,-0.0022,0.0101,-0.0058,0.1520,0
13133035,0.7213,-0.0012,-0.6927,-0.0022,0.0051,0.0031,0.1424,0
13133201,0.7213,-0.0012,-0.6927,-0.0022,0.0136,-0.0102,0.1251,0
13133368,0.7213,-0.0012,-0.6927,-0.0022,-0.0024,-0.0041,0.1251,0
13133535,0.7213,-0.0012,-0.6927,-0.0022,0.0047,-0.0090,0.1317,0
13133701,0.7213,-0.0012,-0.6927,-0.0022,-0.0014,-0.0097,0.1494,0
13133868,0.7213,-0.0012,-0.6927,-0.0022,0.0307,-0.0026,0.1235,0
13134035,0.7213,-0.0012,-0.6926,-0.0022,0.0059,-0.0150,0.1409,0
13134201,0.7213,-0.0012,-0.6926,-0.0022,-0.0139,-0.0035,0.1572,0
13134368,0.7213,-0.0012,-0.6926,-0.0023,-0.0104,0.0110,0.1280,0
13134535,0.7213,-0.0012,-0.6927,-0.0023,0.0118,-0.0011,0.1352,0
13134701,0.7213,-0.0012,-0.6926,-0.0023,0.0071,0.0022,0.1387,0
13134868,0.7213,-0.0012,-0.6926,-0.0023,-0.0102,0.0007,0.1326,0
13135035,0.7213,-0.0013,-0.6926,-0.0023,-0.0162,-0.0030,0.1383,0
13135202,0.7213,-0.0013,-0.6926,-0.0023,0.0087,-0.0076,0.1312,0
13135368,0.7213,-0.0013,-0.6926,-0.0023,0.0096,-0.0035,0.1326,0
13135535,0.7213,-0.0013,-0.6926,-0.0023,-0.0015,-0.0113,0.1254,0
13135702,0.7213,-0.0013,-0.6926,-0.0023,-0.0046,0.0075,0.1304,0
13135868,0.7213,-0.0013,-0.6926,-0.0023,-0.0020,0.0009,0.1308,0
13136035,0.7213,-0.0013,-0.6926,-0.0023,0.0060,0.0030,0.1289,0
13136202,0.7213,-0.0013,-0.6926,-0.0023,-0.0008,0.0018,0.1332,0
13136368,0.7213,-0.0013,-0.6926,-0.0023,0.0015,-0.0098,0.1342,0
13136535,0.7213,-0.0013,-0.6926,-0.0023,0.0217,-0.0034,0.1263,0
13136702,0.7213,-0.0013,-0.6926,-0.0023,-0.0128,-0.0025,0.1283,0
13136868,0.7213,-0.0013,-0.6926,-0.0023,0.0034,0.0024,0.1250,0
13137035,0.7213,-0.0013,-0.6926,-0.0023,0.0068,0.0046,0.1387,0
13137202,0.7213,-0.0013,-0.6926,-0.0023,-0.0001,0.0063,0.1369,0
13137368,0.7213,-0.0013,-0.6926,-0.0023,-0.0077,-0.0035,0.1360,0
13137535,0.7213,-0.0013,-0.6926,-0.0023,0.0177,0.0059,0.1283,0
13137702,0.7213,-0.0013,-0.6926,-0.0023,0.0043,-0.0121,0.1391,0
13137868,0.7213,-0.0013,-0.6926,-0.0023,0.0176,-0.0126,0.1347,0
13138035,0.7213,-0.0013,-0.6926,-0.0023,0.0084,-0.0064,0.1326,0
13138202,0.7213,-0.0013,-0.6926,-0.0023,0.0168,-0.0026,0.1285,0
13138368,0.7213,-0.0013,-0.6926,-0.0023,0.0006,0.0074,0.1337,0
13138535,0.7213,-0.0013,-0.6926,-0.0023,0.0138,0.0050,0.1392,0
13138702,0.7213,-0.0013,-0.6926,-0.0023,-0.0084,-0.0080,0.1319,0
13138868,0.7213,-0.0014,-0.6926,-0.0023,-0.0076,-0.0034,0.1469,0
13139035,0.7213,-0.0014,-0.6926,-0.0023,0.0111,-0.0185,0.1270,0
13139202,0.7213,-0.0014,-0.6926,-0.0023,0.0174,-0.0075,0.1255,0
13139368,0.7213,-0.0014,-0.6926,-0.0023,-0.0081,0.0037,0.1344,0
13139535,0.7213,-0.0014,-0.6926,-0.0023,-0.0045,-0.0157,0.1307,0
13139702,0.7213,-0.0014,-0.6926,-0.0023,0.0118,0.0047,0.1396,0
13139868,0.7213,-0.0014,-0.6926,-0.0023,0.0035,0.0023,0.1312,0
13140035,0.7213,-0.0014,-0.6926,-0.0023,-0.0130,0.0037,0.1362,0
13140202,0.7213,-0.0014,-0.6926,-0.0024,-0.0174,0.0009,0.1376,0
13140368,0.7213,-0.0014,-0.6926,-0.0024,0.0186,0.0013,0.1342,0
13140535,0.7213,-0.0014,-0.6926,-0.0024,0.0210,-0.0018,0.1453,0
13140702,0.7213,-0.0014,-0.6926,-0.0024,0.0180,-0.0112,0.1435,0
13140868,0.7213,-0.0014,-0.6926,-0.0024,0.0172,0.0100,0.1401,0
13141035,0.7213,-0.0014,-0.6926,-0.0024,0.0004,-0.0024,0.1295,0
13141202,0.7213,-0.0014,-0.6926,-0.0024,0.0022,-0.0012,0.1352,0
13141368,0.7213,-0.0014,-0.6926,-0.0024,0.0233,0.0091,0.1224,0
13141535,0.7213,-0.0014,-0.6926,-0.0024,0.0016,-0.0017,0.1363,0
13141702,0.7213,-0.0014,-0.6926,-0.0024,-0.0060,-0.0065,0.1331,0
13141868,0.7213,-0.0014,-0.6926,-0.0024,-0.0016,-0.0004,0.1354,0
13142035,0.7213,-0.0014,-0.6926,-0.0024,0.0017,0.0073,0.1304,0
13142202,0.7213,-0.0014,-0.6926,-0.0024,0.0162,-0.0057,0.1309,0
13142368,0.7213,-0.0014,-0.6926,-0.0024,-0.0015,-0.0030,0.1292,0
13142535,0.7213,-0.0014,-0.6926,-0.0024,-0.0053,0.0008,0.1527,0
13142702,0.7213,-0.0015,-0.6926,-0.0024,-0.0099,0.0044,0.1318,0
13142868,0.7213,-0.0015,-0.6926,-0.0024,-0.0007,-0.0043,0.1426,0
13143035,0.7213,-0.0015,-0.6926,-0.0024,0.0034,-0.0057,0.1379,0
13143202,0.7213,-0.0015,-0.6926,-0.0024,-0.0080,0.0019,0.1265,0
13143368,0.7213,-0.0015,-0.6926,-0.0024,0.0028,0.0015,0.1450,0
13143535,0.7213,-0.0015,-0.6926,-0.0024,0.0045,0.0005,0.1270,0
13143702,0.7213,-0.0015,-0.6926,-0.0024,0.0059,-0.0148,0.1414,0
13143868,0.7213,-0.0015,-0.6926,-0.0024,0.0239,-0.0007,0.1337,0
13144035,0.7213,-0.0015,-0.6926,-0.0024,0.0182,-0.0121,0.1548,0
13144202,0.7213,-0.0015,-0.6926,-0.0024,-0.0129,0.0409,0.1424,0
13144368,0.7213,-0.0015,-0.6926,-0.0024,-0.0312,-0.0197,0.1430,0
13144535,0.7213,-0.0015,-0.6926,-0.0024,0.0168,-0.0219,0.1071,0
13144702,0.7213,-0.0015,-0.6926,-0.0024,0.0791,-0.0187,0.1213,0
13144868,0.7213,-0.0015,-0.6926,-0.0024,-0.0130,-0.0008,0.1392,0
13145035,0.7213,-0.0015,-0.6926,-0.0024,-0.0408,0.0262,0.1135,0
13145202,0.7213,-0.0015,-0.6926,-0.0024,0.0021,0.0014,0.1445,0
13145368,0.7213,-0.0015,-0.6926,-0.0024,0.0317,-0.0225,0.1298,0
13145535,0.7213,-0.0015,-0.6926,-0.0024,0.0530,-0.0203,0.1335,0
13145702,0.7212,-0.0016,-0.6927,-0.0025,-0.0109,0.0069,0.1068,0
13145868,0.7212,-0.0016,-0.6927,-0.0025,-0.0167,0.0049,0.1648,0
13146035,0.7212,-0.0016,-0.6927,-0.0025,-0.0027,-0.0048,0.1357,0
13146202,0.7212,-0.0016,-0.6927,-0.0025,0.0251,-0.0157,0.1299,0
13146368,0.7212,-0.0016,-0.6927,-0.0025,0.0348,-0.0202,0.1298,0
13146535,0.7212,-0.0016,-0.6927,-0.0025,-0.0021,0.0119,0.1203,0
13146702,0.7212,-0.0016,-0.6927,-0.0025,-0.0051,0.0155,0.1382,0
13146868,0.7212,-0.0016,-0.6927,-0.0025,0.0047,0.0149,0.1317,0
13147035,0.7212,-0.0016,-0.6927,-0.0025,-0.0003,-0.0116,0.1472,0
13147202,0.7212,-0.0016,-0.6927,-0.0025,0.0162,-0.0076,0.1315,0
13147368,0.7212,-0.0016,-0.6927,-0.0025,0.0082,-0.0039,0.1292,0
13147535,0.7212,-0.0016,-0.6927,-0.0025,0.0152,-0.0041,0.1346,0
13147702,0.7212,-0.0016,-0.6927,-0.0025,-0.0068,-0.0039,0.1254,0
13147868,0.7212,-0.0016,-0.6927,-0.0025,0.0076,0.0053,0.1344,0
13148035,0.7212,-0.0016,-0.6927,-0.0025,-0.0114,-0.0039,0.1327,0
13148202,0.7212,-0.0016,-0.6927,-0.0025,0.0109,-0.0034,0.1356,0
13148368,0.7212,-0.0016,-0.6927,-0.0025,0.0145,-0.0056,0.1323,0
13148535,0.7212,-0.0016,-0.6927,-0.0025,0.0063,0.0006,0.1235,0
13148702,0.7002,-0.1654,-0.6726,-0.1731,-0.0102,-0.0092,0.1321,0
13148868,0.7002,-0.1654,-0.6727,-0.1730,-0.0105,-0.0117,0.1201,0
13149035
13149202
13149368
