DeviceTag: Xsens DOT1,FirmwareVersion: 2.2.1,AppVersion: 2022.2.0,SyncStatus: Unknown (Synced/Un-synced),OutputRate: 60,FilterProfile: Unknown,Measurement Mode: Sensor fusion Mode - Extended (Quaternion),StartTime: 2023-06-01 19:39:13.512,© Movella Technologies B.V. 2005-2023
SampleTimeFine,Quat_W,Quat_X,Quat_Y,Quat_Z,FreeAcc_X,FreeAcc_Y,FreeAcc_Z,Status
12525246,0.5187,0.0122,-0.0062,-0.8549,-0.0290,0.0020,0.3103,0
12525412,0.5180,0.0124,-0.0069,-0.8553,-0.0383,0.0272,0.3084,0
12525579,0.5165,0.0126,-0.0075,-0.8562,-0.0287,0.0165,0.3337,0
12525746,0.5177,0.0128,-0.0080,-0.8555,-0.0298,0.0340,0.3188,0
12525912,0.5174,0.0132,-0.0086,-0.8556,-0.0720,0.0342,0.3232,0
12526079,0.5178,0.0134,-0.0091,-0.8553,-0.0882,0.0323,0.2847,0
12526246,0.5178,0.0137,-0.0097,-0.8553,-0.0742,0.0386,0.2995,0
12526412,0.5189,0.0139,-0.0102,-0.8547,-0.0871,0.0580,0.3081,0
12526579,0.5184,0.0142,-0.0108,-0.8550,-0.0939,0.0507,0.3110,0
12526746,0.5189,0.0145,-0.0113,-0.8547,-0.1314,0.0613,0.3208,0
12526912,0.5196,0.0148,-0.0119,-0.8542,-0.1228,0.0719,0.3161,0
12527079,0.5196,0.0150,-0.0125,-0.8542,-0.1364,0.0860,0.3089,0
12527246,0.5195,0.0153,-0.0131,-0.8542,-0.1538,0.0990,0.3224,0
12527412,0.5198,0.0156,-0.0136,-0.8541,-0.1752,0.0926,0.2935,0
12527579,0.5204,0.0159,-0.0142,-0.8536,-0.1820,0.1114,0.3085,0
12527746,0.5204,0.0162,-0.0148,-0.8536,-0.1940,0.1177,0.3340,0
12527912,0.5206,0.0165,-0.0154,-0.8535,-0.1820,0.1148,0.3079,0
12528079,0.5207,0.0168,-0.0160,-0.8534,-0.2064,0.1335,0.3031,0
12528246,0.5214,0.0171,-0.0165,-0.8530,-0.2270,0.1290,0.2840,0
12528412,0.5216,0.0174,-0.0171,-0.8528,-0.2375,0.1451,0.3075,0
12528579,0.5219,0.0177,-0.0177,-0.8526,-0.2296,0.1601,0.3088,0
12528746,0.5222,0.0180,-0.0183,-0.8524,-0.2467,0.1522,0.2943,0
12528912,0.5226,0.0183,-0.0189,-0.8522,-0.2616,0.1625,0.2987,0
12529079,0.5225,0.0186,-0.0194,-0.8522,-0.2787,0.1707,0.3093,0
12529246,0.5228,0.0189,-0.0200,-0.8520,-0.3026,0.1738,0.3080,0
12529412,0.5232,0.0192,-0.0206,-0.8518,-0.3089,0.1922,0.3230,0
12529579,0.5233,0.0195,-0.0212,-0.8517,-0.3038,0.1819,0.3154,0
12529746,0.5235,0.0198,-0.0218,-0.8515,-0.3259,0.1868,0.3103,0
12529912,0.5237,0.0201,-0.0224,-0.8514,-0.3355,0.1999,0.3064,0
12530079,0.5241,0.0204,-0.0230,-0.8511,-0.3472,0.2139,0.3049,0
12530246,0.5239,0.0207,-0.0236,-0.8512,-0.3624,0.2168,0.3006,0
12530412,0.5244,0.0210,-0.0242,-0.8509,-0.3736,0.2271,0.3100,0
12530579,0.5248,0.0213,-0.0248,-0.8506,-0.3760,0.2348,0.3023,0
12530746,0.5250,0.0216,-0.0253,-0.8504,-0.4021,0.2382,0.2855,0
12530912,0.5252,0.0219,-0.0259,-0.8503,-0.4058,0.2467,0.2784,0
12531079,0.5254,0.0222,-0.0265,-0.8501,-0.4179,0.2613,0.2896,0
12531246,0.5259,0.0226,-0.0271,-0.8498,-0.4268,0.2615,0.3003,0
12531412,0.5259,0.0229,-0.0277,-0.8498,-0.4430,0.2555,0.2754,0
12531579,0.5262,0.0232,-0.0283,-0.8496,-0.4483,0.2821,0.2878,0
12531746,0.5265,0.0235,-0.0289,-0.8494,-0.4493,0.2765,0.2871,0
12531913,0.5270,0.0238,-0.0294,-0.8490,-0.4802,0.2920,0.2906,0
12532079,0.5271,0.0241,-0.0300,-0.8489,-0.4950,0.2905,0.3120,0
12532246,0.5274,0.0244,-0.0306,-0.8487,-0.4936,0.3132,0.2920,0
12532413,0.5278,0.0247,-0.0312,-0.8485,-0.5240,0.2996,0.2815,0
12532579,0.5281,0.0250,-0.0318,-0.8482,-0.5218,0.3157,0.3092,0
12532746,0.5283,0.0253,-0.0324,-0.8481,-0.5374,0.3249,0.3033,0
12532913,0.5286,0.0256,-0.0330,-0.8479,-0.5520,0.3308,0.2850,0
12533079,0.5290,0.0259,-0.0335,-0.8476,-0.5529,0.3361,0.2886,0
12533246,0.5292,0.0262,-0.0341,-0.8474,-0.5606,0.3381,0.2855,0
12533413,0.5295,0.0266,-0.0347,-0.8472,-0.5802,0.3412,0.2919,0
12533579,0.5297,0.0269,-0.0353,-0.8470,-0.5992,0.3462,0.2849,0
12533746,0.5301,0.0272,-0.0358,-0.8467,-0.6074,0.3567,0.2828,0
12533913,0.5302,0.0275,-0.0364,-0.8467,-0.6062,0.3663,0.2929,0
12534079,0.5305,0.0278,-0.0369,-0.8464,-0.6273,0.3746,0.2630,0
12534246,0.5308,0.0281,-0.0375,-0.8462,-0.6411,0.3762,0.2790,0
12534413,0.5311,0.0284,-0.0381,-0.8460,-0.6369,0.3901,0.2906,0
12534579,0.5313,0.0287,-0.0386,-0.8458,-0.6416,0.3778,0.2537,0
12534746,0.5315,0.0290,-0.0392,-0.8457,-0.6745,0.3827,0.2673,0
12534913,0.5319,0.0293,-0.0398,-0.8454,-0.7067,0.4075,0.2779,0
12535079,0.5321,0.0296,-0.0403,-0.8452,-0.6825,0.4045,0.2668,0
12535246,0.5324,0.0299,-0.0409,-0.8450,-0.7033,0.4217,0.2870,0
12535413,0.5327,0.0302,-0.0414,-0.8448,-0.7163,0.4181,0.2818,0
12535579,0.5330,0.0304,-0.0419,-0.8445,-0.7358,0.4205,0.2921,0
12535746,0.5331,0.0307,-0.0425,-0.8444,-0.7569,0.4383,0.2781,0
12535913,0.5334,0.0310,-0.0430,-0.8442,-0.7577,0.4386,0.2825,0
12536079,0.5337,0.0313,-0.0435,-0.8440,-0.7387,0.4473,0.2680,0
12536246,0.5341,0.0316,-0.0441,-0.8437,-0.7584,0.4460,0.2447,0
12536413,0.5343,0.0319,-0.0446,-0.8435,-0.7916,0.4483,0.2755,0
12536579,0.5345,0.0321,-0.0451,-0.8433,-0.7888,0.4637,0.2524,0
12536746,0.5349,0.0324,-0.0457,-0.8431,-0.8091,0.4719,0.2801,0
12536913,0.5352,0.0327,-0.0462,-0.8429,-0.8190,0.4717,0.2730,0
12537079,0.5355,0.0330,-0.0467,-0.8426,-0.8170,0.4842,0.2843,0
12537246,0.5357,0.0333,-0.0472,-0.8425,-0.8380,0.4925,0.2814,0
12537413,0.5360,0.0336,-0.0477,-0.8422,-0.8429,0.4895,0.2635,0
12537579,0.5362,0.0339,-0.0482,-0.8420,-0.8469,0.4902,0.2672,0
12537746,0.5365,0.0341,-0.0487,-0.8418,-0.8570,0.4983,0.2492,0
12537913,0.5368,0.0344,-0.0492,-0.8416,-0.8813,0.4987,0.2534,0
12538079,0.5372,0.0347,-0.0497,-0.8413,-0.8973,0.5093,0.2487,0
12538246,0.5374,0.0349,-0.0502,-0.8411,-0.9056,0.5223,0.2694,0
12538413,0.5377,0.0352,-0.0506,-0.8409,-0.9059,0.5101,0.2362,0
12538579,0.5380,0.0355,-0.0511,-0.8407,-0.9111,0.5381,0.2756,0
12538746,0.5382,0.0357,-0.0516,-0.8405,-0.9250,0.5287,0.2740,0
12538913,0.5384,0.0360,-0.0520,-0.8403,-0.9413,0.5414,0.2442,0
12539079,0.5387,0.0362,-0.0525,-0.8401,-0.9478,0.5374,0.2701,0
12539246,0.5390,0.0365,-0.0530,-0.8398,-0.9482,0.5386,0.2459,0
12539413,0.5393,0.0367,-0.0534,-0.8396,-0.9713,0.5556,0.2715,0
12539579,0.5396,0.0370,-0.0538,-0.8394,-0.9746,0.5501,0.2432,0
12539746,0.5399,0.0372,-0.0543,-0.8392,-0.9907,0.5447,0.2481,0
12539913,0.5403,0.0375,-0.0547,-0.8389,-0.9903,0.5620,0.2532,0
12540079,0.5404,0.0377,-0.0552,-0.8387,-0.9879,0.5641,0.2355,0
12540246,0.5407,0.0379,-0.0556,-0.8385,-0.9907,0.5732,0.2634,0
12540413,0.5411,0.0382,-0.0560,-0.8383,-1.0141,0.5589,0.2462,0
12540579,0.5413,0.0384,-0.0564,-0.8380,-1.0287,0.5750,0.2390,0
12540746,0.5416,0.0386,-0.0568,-0.8378,-1.0343,0.5767,0.2354,0
12540913,0.5418,0.0388,-0.0572,-0.8377,-1.0273,0.5870,0.2508,0
12541079,0.5422,0.0391,-0.0576,-0.8374,-1.0444,0.5879,0.2444,0
12541246,0.5424,0.0393,-0.0580,-0.8372,-1.0684,0.6058,0.2396,0
12541413,0.5427,0.0395,-0.0584,-0.8370,-1.0843,0.6016,0.2327,0
12541579,0.5430,0.0397,-0.0587,-0.8367,-1.0644,0.6125,0.2520,0
12541746,0.5433,0.0399,-0.0591,-0.8365,-1.0837,0.5938,0.2313,0
12541913,0.5435,0.0401,-0.0595,-0.8363,-1.1100,0.6014,0.2451,0
12542079,0.5438,0.0403,-0.0599,-0.8361,-1.1075,0.6251,0.2222,0
12542246,0.5442,0.0405,-0.0602,-0.8358,-1.1068,0.6216,0.2440,0
12542413,0.5445,0.0407,-0.0605,-0.8356,-1.1079,0.6243,0.2579,0
12542579,0.5448,0.0409,-0.0609,-0.8354,-1.1281,0.6236,0.2226,0
12542746,0.5451,0.0411,-0.0612,-0.8351,-1.1229,0.6319,0.2150,0
12542913,0.5454,0.0413,-0.0616,-0.8349,-1.1344,0.6348,0.2469,0
12543079,0.5456,0.0415,-0.0619,-0.8347,-1.1417,0.6319,0.2326,0
12543246,0.5459,0.0416,-0.0622,-0.8345,-1.1406,0.6342,0.2283,0
12543413,0.5460,0.0418,-0.0625,-0.8344,-1.1426,0.6227,0.2203,0
12543579,0.5464,0.0420,-0.0628,-0.8341,-1.1468,0.6276,0.2313,0
12543746,0.5464,0.0421,-0.0631,-0.8341,-1.1554,0.6478,0.2195,0
12543913,0.5467,0.0423,-0.0634,-0.8338,-1.1769,0.6507,0.2071,0
12544079,0.5471,0.0425,-0.0637,-0.8336,-1.1819,0.6499,0.2264,0
12544246,0.5474,0.0426,-0.0639,-0.8333,-1.1836,0.6643,0.2106,0
12544413,0.5477,0.0428,-0.0642,-0.8331,-1.1889,0.6509,0.2340,0
12544579,0.5480,0.0429,-0.0644,-0.8329,-1.1838,0.6677,0.2163,0
12544746,0.5483,0.0431,-0.0647,-0.8326,-1.1855,0.6613,0.2218,0
12544913,0.5486,0.0432,-0.0649,-0.8325,-1.1964,0.6665,0.2301,0
12545079,0.5487,0.0433,-0.0652,-0.8323,-1.2162,0.6672,0.2300,0
12545246,0.5489,0.0435,-0.0654,-0.8322,-1.2261,0.6683,0.2192,0
12545413,0.5493,0.0436,-0.0656,-0.8319,-1.2139,0.6760,0.2043,0
12545579,0.5495,0.0437,-0.0658,-0.8318,-1.2245,0.6808,0.2098,0
12545746,0.5497,0.0438,-0.0661,-0.8316,-1.2334,0.6733,0.2246,0
12545913,0.5499,0.0440,-0.0663,-0.8314,-1.2451,0.6682,0.2152,0
12546079,0.5502,0.0441,-0.0665,-0.8312,-1.2419,0.6830,0.2132,0
12546246,0.5504,0.0442,-0.0666,-0.8311,-1.2411,0.6804,0.2114,0
12546413,0.5506,0.0443,-0.0668,-0.8309,-1.2581,0.6887,0.2141,0
12546579,0.5510,0.0444,-0.0670,-0.8306,-1.2514,0.6653,0.2420,0
12546746,0.5512,0.0445,-0.0672,-0.8305,-1.2610,0.6876,0.2236,0
12546913,0.5514,0.0446,-0.0673,-0.8303,-1.2525,0.6808,0.1974,0
12547079,0.5516,0.0447,-0.0675,-0.8301,-1.2572,0.6886,0.2122,0
12547246,0.5521,0.0448,-0.0676,-0.8298,-1.2653,0.6842,0.2280,0
12547413,0.5522,0.0449,-0.0678,-0.8297,-1.2715,0.6953,0.2185,0
12547579,0.5525,0.0449,-0.0679,-0.8296,-1.2703,0.6982,0.2031,0
12547746,0.5527,0.0450,-0.0680,-0.8294,-1.2636,0.6865,0.2045,0
12547913,0.5530,0.0451,-0.0681,-0.8292,-1.2941,0.6942,0.2196,0
12548079,0.5530,0.0451,-0.0683,-0.8292,-1.2809,0.6937,0.2004,0
12548246,0.5532,0.0452,-0.0684,-0.8290,-1.2779,0.6925,0.1888,0
12548413,0.5535,0.0453,-0.0685,-0.8288,-1.2775,0.6913,0.2192,0
12548580,0.5537,0.0453,-0.0685,-0.8287,-1.2896,0.7044,0.2118,0
12548746,0.5540,0.0454,-0.0686,-0.8285,-1.3017,0.6870,0.2237,0
12548913,0.5541,0.0454,-0.0687,-0.8283,-1.2851,0.6886,0.2125,0
12549080,0.5546,0.0455,-0.0688,-0.8280,-1.2877,0.6879,0.1834,0
12549246,0.5547,0.0455,-0.0688,-0.8279,-1.2953,0.6810,0.1916,0
12549413,0.5549,0.0455,-0.0689,-0.8278,-1.2936,0.6996,0.2191,0
12549580,0.5550,0.0456,-0.0689,-0.8277,-1.2904,0.7027,0.1913,0
12549746,0.5554,0.0456,-0.0690,-0.8275,-1.3038,0.6900,0.2170,0
12549913,0.5554,0.0456,-0.0690,-0.8275,-1.3012,0.6986,0.2269,0
12550080,0.5555,0.0456,-0.0691,-0.8274,-1.2990,0.7080,0.2137,0
12550246,0.5559,0.0457,-0.0691,-0.8271,-1.2982,0.6973,0.1843,0
12550413,0.5560,0.0457,-0.0691,-0.8271,-1.3031,0.6933,0.1946,0
12550580,0.5561,0.0457,-0.0692,-0.8270,-1.3048,0.6908,0.2160,0
12550746,0.5562,0.0457,-0.0692,-0.8269,-1.2966,0.6843,0.1978,0
12550913,0.5565,0.0457,-0.0692,-0.8267,-1.2948,0.6971,0.2201,0
12551080,0.5566,0.0456,-0.0692,-0.8266,-1.3020,0.6913,0.2082,0
12551246,0.5567,0.0456,-0.0692,-0.8266,-1.3217,0.6979,0.1934,0
12551413,0.5569,0.0456,-0.0692,-0.8265,-1.3070,0.6983,0.1785,0
12551580,0.5571,0.0456,-0.0692,-0.8263,-1.3214,0.6953,0.2101,0
12551746,0.5571,0.0456,-0.0691,-0.8263,-1.3037,0.6964,0.2028,0
12551913,0.5573,0.0456,-0.0691,-0.8262,-1.3082,0.6858,0.2031,0
12552080,0.5574,0.0456,-0.0691,-0.8261,-1.3158,0.6999,0.1999,0
12552246,0.5576,0.0456,-0.0691,-0.8260,-1.2964,0.7077,0.2069,0
12552413,0.5576,0.0455,-0.0690,-0.8260,-1.2996,0.6874,0.2011,0
12552580,0.5578,0.0455,-0.0690,-0.8258,-1.2919,0.6944,0.2007,0
12552746,0.5582,0.0455,-0.0689,-0.8256,-1.3035,0.6981,0.1969,0
12552913,0.5582,0.0455,-0.0689,-0.8256,-1.3099,0.6954,0.1841,0
12553080,0.5584,0.0454,-0.0688,-0.8255,-1.2950,0.6945,0.2022,0
12553246,0.5585,0.0454,-0.0687,-0.8254,-1.3026,0.6852,0.2157,0
12553413,0.5588,0.0453,-0.0687,-0.8252,-1.2910,0.6852,0.1987,0
12553580,0.5588,0.0453,-0.0686,-0.8252,-1.2951,0.6853,0.2091,0
12553746,0.5589,0.0452,-0.0685,-0.8251,-1.2948,0.6853,0.1934,0
12553913,0.5591,0.0452,-0.0684,-0.8251,-1.3004,0.6822,0.2000,0
12554080,0.5592,0.0451,-0.0683,-0.8250,-1.3010,0.6699,0.2191,0
12554246,0.5593,0.0451,-0.0682,-0.8249,-1.2961,0.6785,0.1905,0
12554413,0.5592,0.0450,-0.0681,-0.8250,-1.2772,0.6712,0.2222,0
12554580,0.5594,0.0449,-0.0680,-0.8249,-1.2911,0.6660,0.2096,0
12554746,0.5594,0.0449,-0.0679,-0.8249,-1.2814,0.6727,0.2068,0
12554913,0.5594,0.0448,-0.0678,-0.8249,-1.2941,0.6731,0.2018,0
12555080,0.5594,0.0447,-0.0677,-0.8249,-1.2925,0.6808,0.1940,0
12555246,0.5596,0.0446,-0.0676,-0.8248,-1.2831,0.6782,0.2002,0
12555413,0.5595,0.0445,-0.0675,-0.8249,-1.2636,0.6829,0.2012,0
12555580,0.5596,0.0445,-0.0673,-0.8248,-1.2651,0.6625,0.2290,0
12555746,0.5597,0.0444,-0.0672,-0.8248,-1.2795,0.6663,0.2205,0
12555913,0.5598,0.0443,-0.0671,-0.8247,-1.2801,0.6770,0.1982,0
12556080,0.5598,0.0442,-0.0670,-0.8247,-1.2747,0.6728,0.1995,0
12556246,0.5599,0.0441,-0.0668,-0.8247,-1.2633,0.6739,0.2116,0
12556413,0.5600,0.0440,-0.0667,-0.8246,-1.2502,0.6758,0.2138,0
12556580,0.5601,0.0439,-0.0665,-0.8246,-1.2617,0.6837,0.2286,0
12556746,0.5601,0.0438,-0.0664,-0.8246,-1.2619,0.6716,0.2350,0
12556913,0.5601,0.0437,-0.0662,-0.8246,-1.2554,0.6657,0.1944,0
12557080,0.5603,0.0436,-0.0661,-0.8245,-1.2520,0.6558,0.2003,0
12557246,0.5603,0.0435,-0.0659,-0.8245,-1.2403,0.6727,0.2395,0
12557413,0.5603,0.0434,-0.0657,-0.8245,-1.2426,0.6670,0.2361,0
12557580,0.5603,0.0433,-0.0656,-0.8245,-1.2391,0.6621,0.2236,0
12557746,0.5604,0.0432,-0.0654,-0.8245,-1.2259,0.6619,0.2019,0
12557913,0.5604,0.0431,-0.0653,-0.8245,-1.2259,0.6473,0.2317,0
12558080,0.5604,0.0430,-0.0651,-0.8246,-1.2123,0.6522,0.2255,0
12558246,0.5605,0.0429,-0.0649,-0.8245,-1.2110,0.6535,0.2088,0
12558413,0.5604,0.0427,-0.0648,-0.8246,-1.1993,0.6511,0.2242,0
12558580,0.5604,0.0426,-0.0646,-0.8246,-1.2086,0.6552,0.2018,0
12558746,0.5603,0.0425,-0.0644,-0.8247,-1.2142,0.6587,0.2104,0
12558913,0.5604,0.0424,-0.0642,-0.8246,-1.2254,0.6478,0.2351,0
12559080,0.5604,0.0423,-0.0640,-0.8247,-1.2112,0.6430,0.2079,0
12559246,0.5604,0.0422,-0.0638,-0.8247,-1.1831,0.6460,0.2421,0
12559413,0.5604,0.0420,-0.0636,-0.8247,-1.1709,0.6342,0.2082,0
12559580,0.5605,0.0419,-0.0635,-0.8247,-1.1801,0.6458,0.2407,0
12559746,0.5604,0.0418,-0.0633,-0.8247,-1.2060,0.6319,0.2244,0
12559913,0.5603,0.0417,-0.0631,-0.8248,-1.1947,0.6396,0.2467,0
12560080,0.5605,0.0415,-0.0629,-0.8247,-1.1719,0.6520,0.2370,0
12560246,0.5604,0.0414,-0.0627,-0.8248,-1.1543,0.6304,0.2269,0
12560413,0.5604,0.0413,-0.0625,-0.8248,-1.1770,0.6454,0.2275,0
12560580,0.5603,0.0412,-0.0623,-0.8249,-1.1293,0.6138,0.2556,0
12560746,0.5604,0.0410,-0.0621,-0.8249,-1.1468,0.6563,0.1287,0
12560913,0.5603,0.0409,-0.0619,-0.8250,-1.1807,0.6059,0.3198,0
12561080,0.5603,0.0408,-0.0616,-0.8250,-1.1504,0.6160,0.1812,0
12561246,0.5602,0.0407,-0.0614,-0.8251,-1.1227,0.6597,0.2783,0
12561413,0.5602,0.0405,-0.0612,-0.8251,-1.1240,0.6002,0.2184,0
12561580,0.5601,0.0404,-0.0610,-0.8252,-1.1250,0.6326,0.1936,0
12561746,0.5601,0.0402,-0.0608,-0.8252,-1.1476,0.6308,0.2398,0
12561913,0.5601,0.0401,-0.0606,-0.8252,-1.1391,0.6135,0.2060,0
12562080,0.5600,0.0400,-0.0604,-0.8253,-1.1013,0.6337,0.2235,0
12562246,0.5600,0.0398,-0.0602,-0.8254,-1.1032,0.5933,0.2261,0
12562413,0.5599,0.0397,-0.0600,-0.8255,-1.1015,0.6309,0.2419,0
12562580,0.5598,0.0396,-0.0598,-0.8255,-1.1103,0.5929,0.2579,0
12562746,0.5597,0.0394,-0.0595,-0.8256,-1.0948,0.6047,0.2373,0
12562913,0.5597,0.0393,-0.0593,-0.8257,-1.0895,0.6080,0.2267,0
12563080,0.5596,0.0391,-0.0591,-0.8257,-1.0975,0.5825,0.2329,0
12563246,0.5596,0.0390,-0.0589,-0.8258,-1.0743,0.6051,0.2643,0
12563413,0.5595,0.0388,-0.0587,-0.8258,-1.0744,0.6005,0.2056,0
12563580,0.5594,0.0387,-0.0585,-0.8259,-1.0733,0.6073,0.2288,0
12563746,0.5594,0.0385,-0.0583,-0.8260,-1.0644,0.5690,0.2434,0
12563913,0.5592,0.0384,-0.0581,-0.8261,-1.0575,0.6008,0.2192,0
12564080,0.5591,0.0383,-0.0579,-0.8262,-1.0660,0.5934,0.2367,0
12564246,0.5590,0.0381,-0.0576,-0.8263,-1.0580,0.5868,0.2556,0
12564413,0.5591,0.0379,-0.0575,-0.8263,-1.0572,0.6123,0.2287,0
12564580,0.5590,0.0378,-0.0572,-0.8264,-1.0553,0.5633,0.3125,0
12564746,0.5588,0.0376,-0.0570,-0.8265,-1.0362,0.5776,0.2037,0
12564913,0.5588,0.0375,-0.0568,-0.8265,-1.0388,0.5829,0.3054,0
12565080,0.5587,0.0374,-0.0566,-0.8266,-1.0350,0.5768,0.2037,0
12565247,0.5586,0.0372,-0.0563,-0.8267,-1.0221,0.5868,0.2613,0
12565413,0.5584,0.0371,-0.0561,-0.8268,-1.0176,0.5747,0.1904,0
12565580,0.5584,0.0370,-0.0559,-0.8269,-1.0389,0.5763,0.2583,0
12565747,0.5583,0.0368,-0.0556,-0.8270,-1.0335,0.5735,0.2220,0
12565913,0.5582,0.0367,-0.0554,-0.8271,-0.9919,0.5802,0.2516,0
12566080,0.5580,0.0365,-0.0552,-0.8272,-0.9887,0.5622,0.2588,0
12566247,0.5580,0.0364,-0.0550,-0.8272,-0.9737,0.5799,0.2317,0
12566413,0.5578,0.0362,-0.0548,-0.8274,-1.0085,0.5671,0.2653,0
12566580,0.5577,0.0361,-0.0545,-0.8275,-0.9828,0.5665,0.2258,0
12566747,0.5576,0.0359,-0.0543,-0.8276,-0.9765,0.5625,0.2227,0
12566913,0.5574,0.0358,-0.0541,-0.8277,-0.9882,0.5524,0.2998,0
12567080,0.5573,0.0357,-0.0539,-0.8278,-0.9811,0.5689,0.2027,0
12567247,0.5571,0.0355,-0.0537,-0.8279,-0.9788,0.5608,0.2464,0
12567413,0.5571,0.0354,-0.0535,-0.8280,-0.9590,0.5491,0.2507,0
12567580,0.5569,0.0352,-0.0533,-0.8281,-0.9379,0.5515,0.2907,0
12567747,0.5567,0.0351,-0.0531,-0.8283,-0.9282,0.5614,0.2139,0
12567913,0.5566,0.0349,-0.0529,-0.8284,-0.9630,0.5374,0.2599,0
12568080,0.5565,0.0348,-0.0526,-0.8285,-0.9700,0.5340,0.2569,0
12568247,0.5563,0.0346,-0.0524,-0.8286,-0.9496,0.5479,0.2296,0
12568413,0.5562,0.0345,-0.0522,-0.8287,-0.9372,0.5261,0.2885,0
12568580,0.5560,0.0344,-0.0520,-0.8288,-0.9030,0.5388,0.2428,0
12568747,0.5559,0.0342,-0.0518,-0.8289,-0.9253,0.5450,0.2242,0
12568913,0.5557,0.0341,-0.0516,-0.8291,-0.9402,0.5232,0.2515,0
12569080,0.5556,0.0339,-0.0514,-0.8292,-0.8988,0.5401,0.2330,0
12569247,0.5555,0.0338,-0.0512,-0.8293,-0.8917,0.5393,0.2712,0
12569413,0.5554,0.0336,-0.0510,-0.8294,-0.8742,0.5301,0.2543,0
12569580,0.5552,0.0335,-0.0507,-0.8295,-0.8868,0.5245,0.2363,0
12569747,0.5550,0.0333,-0.0505,-0.8296,-0.8952,0.5363,0.2120,0
12569913,0.5550,0.0332,-0.0503,-0.8297,-0.8928,0.5132,0.2608,0
12570080,0.5548,0.0331,-0.0501,-0.8298,-0.8904,0.5356,0.2370,0
12570247,0.5547,0.0329,-0.0499,-0.8299,-0.8773,0.5358,0.3032,0
12570413,0.5545,0.0328,-0.0497,-0.8301,-0.8671,0.4921,0.2276,0
12570580,0.5544,0.0327,-0.0494,-0.8301,-0.8684,0.5379,0.2878,0
12570747,0.5542,0.0325,-0.0492,-0.8303,-0.8619,0.5041,0.2285,0
12570913,0.5540,0.0324,-0.0490,-0.8304,-0.8484,0.5215,0.2752,0
12571080,0.5539,0.0322,-0.0488,-0.8305,-0.8595,0.5141,0.2746,0
12571247,0.5537,0.0321,-0.0487,-0.8307,-0.8623,0.4905,0.2695,0
12571413,0.5535,0.0320,-0.0485,-0.8308,-0.8549,0.5274,0.2714,0
12571580,0.5533,0.0318,-0.0482,-0.8310,-0.8381,0.5025,0.2541,0
12571747,0.5532,0.0317,-0.0480,-0.8310,-0.8361,0.5028,0.2705,0
12571913,0.5530,0.0315,-0.0478,-0.8312,-0.8346,0.5053,0.2650,0
12572080,0.5528,0.0314,-0.0476,-0.8313,-0.8324,0.5056,0.2799,0
12572247,0.5527,0.0313,-0.0475,-0.8315,-0.8241,0.4984,0.2747,0
12572413,0.5526,0.0311,-0.0473,-0.8316,-0.8311,0.4904,0.2662,0
12572580,0.5523,0.0310,-0.0471,-0.8317,-0.8287,0.5100,0.2637,0
12572747,0.5522,0.0308,-0.0469,-0.8318,-0.8203,0.5011,0.2676,0
12572913,0.5520,0.0307,-0.0467,-0.8319,-0.8043,0.4986,0.2737,0
12573080,0.5519,0.0306,-0.0465,-0.8321,-0.8003,0.5032,0.2701,0
12573247,0.5517,0.0304,-0.0463,-0.8322,-0.7894,0.4902,0.2701,0
12573413,0.5515,0.0303,-0.0461,-0.8323,-0.7767,0.4809,0.2777,0
12573580,0.5514,0.0302,-0.0459,-0.8324,-0.7815,0.5048,0.2717,0
12573747,0.5512,0.0300,-0.0457,-0.8326,-0.7807,0.4848,0.2810,0
12573913,0.5510,0.0299,-0.0456,-0.8327,-0.7808,0.4913,0.2755,0
12574080,0.5508,0.0298,-0.0454,-0.8329,-0.7785,0.4803,0.2896,0
12574247,0.5507,0.0296,-0.0452,-0.8329,-0.7795,0.4752,0.2630,0
12574413,0.5505,0.0295,-0.0450,-0.8331,-0.7569,0.4968,0.2644,0
12574580,0.5504,0.0294,-0.0448,-0.8332,-0.7731,0.4932,0.2752,0
12574747,0.5503,0.0292,-0.0446,-0.8333,-0.7665,0.5007,0.2679,0
12574913,0.5501,0.0291,-0.0444,-0.8334,-0.7544,0.4796,0.2656,0
12575080,0.5499,0.0290,-0.0443,-0.8336,-0.7526,0.4884,0.2724,0
12575247,0.5497,0.0289,-0.0441,-0.8337,-0.7402,0.4786,0.2638,0
12575413,0.5495,0.0287,-0.0439,-0.8338,-0.7342,0.4687,0.2329,0
12575580,0.5493,0.0286,-0.0438,-0.8340,-0.7483,0.4799,0.2891,0
12575747,0.5491,0.0285,-0.0436,-0.8341,-0.7457,0.4699,0.2773,0
12575913,0.5489,0.0283,-0.0434,-0.8343,-0.7587,0.4746,0.2994,0
12576080,0.5488,0.0282,-0.0433,-0.8344,-0.7281,0.4565,0.2857,0
12576247,0.5486,0.0281,-0.0431,-0.8345,-0.6980,0.4854,0.2807,0
12576413,0.5484,0.0280,-0.0429,-0.8346,-0.7077,0.4650,0.2651,0
12576580,0.5482,0.0278,-0.0427,-0.8348,-0.7080,0.4678,0.3029,0
12576747,0.5481,0.0277,-0.0426,-0.8349,-0.7193,0.4462,0.2492,0
12576913,0.5478,0.0276,-0.0424,-0.8351,-0.6980,0.4646,0.2984,0
12577080,0.5476,0.0275,-0.0422,-0.8352,-0.6915,0.4623,0.2553,0
12577247,0.5475,0.0273,-0.0420,-0.8353,-0.6892,0.4565,0.3263,0
12577413,0.5473,0.0272,-0.0419,-0.8354,-0.6683,0.4593,0.2074,0
12577580,0.5471,0.0271,-0.0417,-0.8356,-0.6732,0.4343,0.3321,0
12577747,0.9988,0.0495,-0.0002,0.0000,-0.1398,-0.8074,0.2429,0
12577913,0.9988,0.0493,-0.0002,-0.0002,-0.1189,-0.8237,0.2900,0
12578080,0.9988,0.0491,-0.0002,-0.0005,-0.1573,-0.7961,0.2763,0
12578247,0.9988,0.0489,-0.0002,-0.0006,-0.1396,-0.7636,0.2793,0
12578413,0.9988,0.0487,-0.0002,-0.0008,-0.1450,-0.7915,0.2795,0
12578580,0.9988,0.0485,-0.0002,-0.0010,-0.1314,-0.8101,0.2841,0
12578747,0.9988,0.0483,-0.0002,-0.0013,-0.1361,-0.8073,0.2934,0
12578913,0.9988,0.0481,-0.0002,-0.0016,-0.1411,-0.7966,0.2805,0
12579080,0.9989,0.0479,-0.0002,-0.0017,-0.1454,-0.7725,0.2811,0
12579247,0.9989,0.0477,-0.0002,-0.0021,-0.1466,-0.7457,0.2710,0
12579413,0.9989,0.0475,-0.0002,-0.0023,-0.1510,-0.7668,0.2608,0
12579580,0.9989,0.0473,-0.0003,-0.0026,-0.1315,-0.7811,0.2769,0
12579747,0.9989,0.0471,-0.0003,-0.0026,-0.1366,-0.7778,0.3318,0
12579913,0.9989,0.0469,-0.0003,-0.0029,-0.1520,-0.7608,0.3069,0
12580080,0.9989,0.0467,-0.0003,-0.0032,-0.1573,-0.7497,0.3098,0
12580247,0.9989,0.0465,-0.0003,-0.0034,-0.1603,-0.7250,0.2595,0
12580413,0.9989,0.0463,-0.0003,-0.0036,-0.1503,-0.7278,0.2878,0
12580580,0.9989,0.0462,-0.0003,-0.0038,-0.1281,-0.7668,0.2903,0
12580747,0.9989,0.0460,-0.0003,-0.0040,-0.1471,-0.7721,0.2592,0
12580913,0.9989,0.0458,-0.0003,-0.0041,-0.1441,-0.7480,0.2854,0
12581080,0.9989,0.0456,-0.0003,-0.0044,-0.1316,-0.7416,0.2844,0
12581247,0.9990,0.0454,-0.0004,-0.0047,-0.1669,-0.6938,0.2885,0
12581413,0.9990,0.0453,-0.0004,-0.0049,-0.1673,-0.6649,0.2823,0
12581580,0.9990,0.0451,-0.0004,-0.0050,-0.1655,-0.7035,0.2832,0
12581747,0.9990,0.0449,-0.0004,-0.0053,-0.1552,-0.7241,0.2930,0
12581914,0.9990,0.0447,-0.0004,-0.0056,-0.1316,-0.7302,0.2775,0
12582080,0.9990,0.0445,-0.0004,-0.0059,-0.1407,-0.7087,0.3084,0
12582247,0.9990,0.0444,-0.0004,-0.0060,-0.1584,-0.6830,0.2806,0
12582414,0.9990,0.0442,-0.0004,-0.0063,-0.1518,-0.7049,0.3069,0
12582580,0.9990,0.0440,-0.0004,-0.0065,-0.1324,-0.7043,0.3009,0
12582747,0.9990,0.0438,-0.0004,-0.0067,-0.1528,-0.7226,0.2904,0
12582914,0.9990,0.0436,-0.0004,-0.0069,-0.1433,-0.6770,0.2944,0
12583080,0.9990,0.0435,-0.0004,-0.0071,-0.1449,-0.6540,0.2971,0
12583247,0.9990,0.0433,-0.0004,-0.0074,-0.1686,-0.6639,0.2789,0
12583414,0.9990,0.0431,-0.0004,-0.0074,-0.1474,-0.6866,0.2934,0
12583580,0.9990,0.0430,-0.0004,-0.0077,-0.1327,-0.6911,0.2889,0
12583747,0.9991,0.0428,-0.0004,-0.0079,-0.1480,-0.6947,0.2809,0
12583914,0.9991,0.0426,-0.0005,-0.0081,-0.1554,-0.6772,0.2950,0
12584080,0.9991,0.0425,-0.0004,-0.0082,-0.1518,-0.6363,0.2522,0
12584247,0.9991,0.0423,-0.0005,-0.0085,-0.1411,-0.6481,0.3398,0
12584414,0.9991,0.0421,-0.0005,-0.0088,-0.1545,-0.6471,0.2786,0
12584580,0.9991,0.0419,-0.0005,-0.0089,-0.1618,-0.6519,0.2959,0
12584747,0.9991,0.0418,-0.0005,-0.0091,-0.1466,-0.6540,0.2966,0
12584914,0.9991,0.0416,-0.0005,-0.0093,-0.1508,-0.6444,0.2795,0
12585080,0.9991,0.0414,-0.0005,-0.0095,-0.1416,-0.6561,0.2938,0
12585247,0.9991,0.0413,-0.0005,-0.0095,-0.1431,-0.6582,0.3035,0
12585414,0.9991,0.0411,-0.0005,-0.0098,-0.1392,-0.6604,0.2891,0
12585580,0.9991,0.0410,-0.0005,-0.0101,-0.1449,-0.6493,0.3187,0
12585747,0.9991,0.0408,-0.0005,-0.0104,-0.1575,-0.6136,0.2979,0
12585914,0.9991,0.0407,-0.0005,-0.0105,-0.1771,-0.6196,0.2947,0
12586080,0.9991,0.0405,-0.0005,-0.0109,-0.1471,-0.6330,0.2822,0
12586247,0.9991,0.0404,-0.0005,-0.0111,-0.1438,-0.6320,0.3236,0
12586414,0.9991,0.0402,-0.0005,-0.0112,-0.1610,-0.6254,0.2983,0
12586580,0.9991,0.0401,-0.0005,-0.0114,-0.1505,-0.6050,0.2909,0
12586747,0.9991,0.0399,-0.0005,-0.0116,-0.1553,-0.6154,0.3098,0
12586914,0.9991,0.0397,-0.0005,-0.0118,-0.1541,-0.6100,0.3062,0
12587080,0.9991,0.0396,-0.0005,-0.0118,-0.1556,-0.6085,0.2850,0
12587247,0.9991,0.0394,-0.0005,-0.0121,-0.1427,-0.6168,0.3178,0
12587414,0.9992,0.0393,-0.0005,-0.0122,-0.1646,-0.5923,0.2963,0
12587580,0.9992,0.0391,-0.0005,-0.0125,-0.1537,-0.6028,0.2799,0
12587747,0.9992,0.0390,-0.0005,-0.0126,-0.1455,-0.5992,0.2575,0
12587914,0.9992,0.0388,-0.0005,-0.0128,-0.1297,-0.5871,0.3764,0
12588080,0.9992,0.0387,-0.0005,-0.0130,-0.1881,-0.5911,0.1878,0
12588247,0.9992,0.0386,-0.0005,-0.0132,-0.1345,-0.5758,0.3718,0
12588414,0.9992,0.0384,-0.0005,-0.0133,-0.1649,-0.5837,0.2396,0
12588580,0.9992,0.0383,-0.0005,-0.0135,-0.1495,-0.5804,0.3397,0
12588747,0.9992,0.0381,-0.0005,-0.0138,-0.1498,-0.5758,0.2975,0
12588914,0.9992,0.0380,-0.0005,-0.0138,-0.1631,-0.5994,0.2665,0
12589080,0.9992,0.0378,-0.0006,-0.0141,-0.1568,-0.5784,0.3310,0
12589247,0.9992,0.0377,-0.0006,-0.0142,-0.1726,-0.5662,0.2775,0
12589414,0.9992,0.0376,-0.0006,-0.0144,-0.1599,-0.5643,0.3274,0
12589580,0.9992,0.0374,-0.0006,-0.0145,-0.1450,-0.5545,0.3063,0
12589747,0.9992,0.0373,-0.0006,-0.0148,-0.1673,-0.5608,0.3066,0
12589914,0.9992,0.0372,-0.0006,-0.0150,-0.1542,-0.5668,0.3131,0
12590080,0.9992,0.0370,-0.0006,-0.0151,-0.1538,-0.5617,0.2752,0
12590247,0.9992,0.0369,-0.0006,-0.0153,-0.1526,-0.5644,0.2794,0
12590414,0.9992,0.0367,-0.0006,-0.0155,-0.1396,-0.5502,0.3036,0
12590580,0.9992,0.0366,-0.0006,-0.0158,-0.1542,-0.5522,0.2882,0
12590747,0.9992,0.0365,-0.0006,-0.0159,-0.1527,-0.5337,0.3121,0
12590914,0.9992,0.0363,-0.0006,-0.0161,-0.1677,-0.5542,0.3140,0
12591080,0.9992,0.0362,-0.0006,-0.0163,-0.1502,-0.5506,0.3225,0
12591247,0.9992,0.0361,-0.0006,-0.0164,-0.1592,-0.5339,0.3272,0
12591414,0.9992,0.0359,-0.0006,-0.0164,-0.1638,-0.5183,0.2517,0
12591580,0.9992,0.0358,-0.0006,-0.0166,-0.1518,-0.5037,0.3292,0
12591747,0.9992,0.0357,-0.0006,-0.0168,-0.1630,-0.5189,0.2662,0
12591914,0.9992,0.0356,-0.0006,-0.0170,-0.1522,-0.5239,0.3378,0
12592080,0.9992,0.0355,-0.0006,-0.0171,-0.1776,-0.5276,0.2850,0
12592247,0.9992,0.0353,-0.0006,-0.0173,-0.1533,-0.5250,0.3033,0
12592414,0.9992,0.0352,-0.0006,-0.0175,-0.1740,-0.5244,0.2941,0
12592580,0.9992,0.0351,-0.0006,-0.0176,-0.1536,-0.4955,0.2830,0
12592747,0.9992,0.0350,-0.0007,-0.0178,-0.1662,-0.5114,0.2835,0
12592914,0.9992,0.0348,-0.0007,-0.0180,-0.1516,-0.5151,0.2927,0
12593080,0.9992,0.0347,-0.0007,-0.0182,-0.1563,-0.4948,0.3050,0
12593247,0.9992,0.0346,-0.0007,-0.0182,-0.1577,-0.5089,0.3047,0
12593414,0.9992,0.0345,-0.0007,-0.0185,-0.1648,-0.4929,0.2857,0
12593580,0.9992,0.0343,-0.0007,-0.0187,-0.1653,-0.4894,0.2771,0
12593747,0.9992,0.0342,-0.0007,-0.0188,-0.1570,-0.4933,0.2974,0
12593914,0.9992,0.0341,-0.0007,-0.0189,-0.1454,-0.4982,0.3013,0
12594080,0.9992,0.0340,-0.0006,-0.0191,-0.1505,-0.4889,0.2955,0
12594247,0.9992,0.0338,-0.0006,-0.0193,-0.1557,-0.4924,0.2986,0
12594414,0.9992,0.0337,-0.0006,-0.0193,-0.1570,-0.4838,0.3031,0
12594580,0.9992,0.0336,-0.0006,-0.0195,-0.1687,-0.4756,0.2934,0
12594747,0.9992,0.0335,-0.0006,-0.0196,-0.1492,-0.4863,0.3157,0
12594914,0.9992,0.0334,-0.0006,-0.0198,-0.1709,-0.4876,0.2951,0
12595080,0.9993,0.0333,-0.0006,-0.0197,-0.1514,-0.4727,0.2830,0
12595247,0.9992,0.0332,-0.0006,-0.0200,-0.1641,-0.4901,0.2623,0
12595414,0.9993,0.0331,-0.0006,-0.0201,-0.1223,-0.4649,0.3613,0
12595580,0.9993,0.0330,-0.0006,-0.0202,-0.1694,-0.4515,0.2708,0
12595747,0.9993,0.0328,-0.0006,-0.0203,-0.1536,-0.4703,0.3340,0
12595914,0.9993,0.0327,-0.0006,-0.0206,-0.1530,-0.4731,0.2730,0
12596080,0.9993,0.0326,-0.0006,-0.0207,-0.1773,-0.4658,0.3184,0
12596247,0.9993,0.0325,-0.0006,-0.0207,-0.1487,-0.4551,0.2657,0
12596414,0.9993,0.0324,-0.0006,-0.0210,-0.1485,-0.4652,0.3202,0
12596580,0.9993,0.0323,-0.0006,-0.0211,-0.1662,-0.4469,0.2885,0
12596747,0.9993,0.0322,-0.0006,-0.0213,-0.1575,-0.4668,0.2988,0
12596914,0.9993,0.0321,-0.0006,-0.0213,-0.1631,-0.4587,0.2969,0
12597080,0.9993,0.0320,-0.0007,-0.0216,-0.1620,-0.4439,0.2963,0
12597247,0.9993,0.0319,-0.0006,-0.0218,-0.1704,-0.4301,0.2895,0
12597414,0.9993,0.0318,-0.0007,-0.0219,-0.1657,-0.4462,0.2824,0
12597580,0.9993,0.0317,-0.0007,-0.0219,-0.1556,-0.4465,0.2891,0
12597747,0.9993,0.0316,-0.0007,-0.0221,-0.1680,-0.4402,0.2950,0
12597914,0.9993,0.0315,-0.0007,-0.0223,-0.1574,-0.4390,0.3109,0
12598080,0.9993,0.0314,-0.0007,-0.0224,-0.1577,-0.4528,0.2863,0
12598247,0.9993,0.0313,-0.0007,-0.0225,-0.1599,-0.4389,0.2907,0
12598414,0.9993,0.0312,-0.0007,-0.0227,-0.1549,-0.4532,0.3100,0
12598581,0.9993,0.0311,-0.0007,-0.0228,-0.1506,-0.4328,0.3026,0
12598747,0.9993,0.0310,-0.0007,-0.0228,-0.1564,-0.4129,0.3096,0
12598914,0.9993,0.0309,-0.0007,-0.0230,-0.1533,-0.4299,0.3139,0
12599081,0.9993,0.0308,-0.0007,-0.0232,-0.1470,-0.4170,0.2976,0
12599247,0.9993,0.0307,-0.0007,-0.0233,-0.1622,-0.4195,0.3237,0
12599414,0.9993,0.0306,-0.0007,-0.0233,-0.1629,-0.4286,0.3112,0
12599581,0.9993,0.0305,-0.0007,-0.0235,-0.1617,-0.4098,0.2674,0
12599747,0.9993,0.0304,-0.0007,-0.0236,-0.1551,-0.4069,0.3125,0
12599914,0.9993,0.0303,-0.0007,-0.0236,-0.1438,-0.4122,0.3207,0
12600081,0.9993,0.0302,-0.0007,-0.0237,-0.1514,-0.4260,0.2974,0
12600247,0.9993,0.0301,-0.0007,-0.0239,-0.1533,-0.4165,0.2979,0
12600414,0.9993,0.0300,-0.0007,-0.0240,-0.1488,-0.4119,0.2985,0
12600581,0.9993,0.0299,-0.0007,-0.0241,-0.1563,-0.4057,0.3120,0
12600747,0.9993,0.0298,-0.0007,-0.0243,-0.1803,-0.4109,0.2992,0
12600914,0.9993,0.0298,-0.0007,-0.0244,-0.1657,-0.4117,0.2812,0
12601081,0.9993,0.0297,-0.0007,-0.0246,-0.1588,-0.4018,0.2981,0
12601247,0.9993,0.0296,-0.0007,-0.0246,-0.1647,-0.4022,0.2990,0
12601414,0.9993,0.0295,-0.0007,-0.0249,-0.1600,-0.4093,0.2701,0
12601581,0.9993,0.0294,-0.0007,-0.0250,-0.1465,-0.4068,0.2893,0
12601747,0.9993,0.0293,-0.0007,-0.0250,-0.1616,-0.4082,0.3185,0
12601914,0.9993,0.0292,-0.0007,-0.0251,-0.1417,-0.3852,0.3041,0
12602081,0.9993,0.0291,-0.0007,-0.0252,-0.1678,-0.3861,0.2958,0
12602247,0.9993,0.0290,-0.0007,-0.0253,-0.1491,-0.4114,0.3115,0
12602414,0.9993,0.0290,-0.0007,-0.0253,-0.1637,-0.3996,0.2901,0
12602581,0.9993,0.0289,-0.0007,-0.0255,-0.1561,-0.3937,0.3103,0
12602747,0.9993,0.0288,-0.0007,-0.0256,-0.1711,-0.3843,0.2993,0
12602914,0.9993,0.0287,-0.0007,-0.0257,-0.1483,-0.3696,0.3230,0
12603081,0.9993,0.0286,-0.0007,-0.0257,-0.1610,-0.3905,0.3026,0
12603247,0.9993,0.0285,-0.0007,-0.0258,-0.1682,-0.3866,0.3058,0
12603414,0.9993,0.0284,-0.0007,-0.0260,-0.1726,-0.4117,0.2417,0
12603581,0.9993,0.0284,-0.0007,-0.0260,-0.1211,-0.3521,0.3893,0
12603747,0.9993,0.0283,-0.0006,-0.0261,-0.1936,-0.3517,0.2830,0
12603914,0.9993,0.0282,-0.0006,-0.0262,-0.1716,-0.3673,0.3596,0
12604081,0.9993,0.0281,-0.0007,-0.0263,-0.1425,-0.4013,0.2726,0
12604247,0.9993,0.0280,-0.0007,-0.0263,-0.1481,-0.3983,0.3016,0
12604414,0.9993,0.0280,-0.0007,-0.0265,-0.1518,-0.3565,0.2744,0
12604581,0.9993,0.0279,-0.0006,-0.0266,-0.1629,-0.3269,0.3327,0
12604747,0.9993,0.0278,-0.0006,-0.0267,-0.1683,-0.3474,0.3088,0
12604914,0.9998,0.0063,0.0069,-0.0146,0.0080,0.0485,0.3193,0
12605081,0.9998,0.0063,0.0069,-0.0146,0.0024,0.0254,0.3193,0
12605247,0.9998,0.0063,0.0069,-0.0147,-0.0152,0.0779,0.3002,0
12605414,0.9998,0.0063,0.0069,-0.0147,0.0147,0.0986,0.3144,0
12605581,0.9998,0.0063,0.0069,-0.0147,-0.0068,0.0827,0.3293,0
12605747,0.9998,0.0063,0.0069,-0.0147,0.0205,0.0342,0.3225,0
12605914,0.9998,0.0063,0.0069,-0.0148,0.0090,0.0508,0.3133,0
12606081,0.9998,0.0063,0.0069,-0.0148,0.0110,0.0547,0.3202,0
12606247,0.9998,0.0063,0.0069,-0.0148,0.0020,0.0845,0.3200,0
12606414,0.9998,0.0063,0.0069,-0.0148,-0.0057,0.0676,0.3137,0
12606581,0.9998,0.0063,0.0069,-0.0148,0.0101,0.0459,0.3223,0
12606747,0.9998,0.0063,0.0069,-0.0148,0.0087,0.0545,0.3175,0
12606914,0.9998,0.0063,0.0069,-0.0148,-0.0076,0.0700,0.3079,0
12607081,0.9998,0.0063,0.0069,-0.0148,0.0064,0.0672,0.3121,0
12607247,0.9998,0.0063,0.0069,-0.0148,0.0003,0.0629,0.3242,0
12607414,0.9998,0.0063,0.0069,-0.0148,0.0149,0.0702,0.2991,0
12607581,0.9998,0.0063,0.0069,-0.0149,0.0144,0.0455,0.3261,0
12607747,0.9998,0.0063,0.0069,-0.0149,0.0105,0.0580,0.3080,0
12607914,0.9998,0.0063,0.0069,-0.0149,-0.0064,0.0816,0.3003,0
12608081,0.9998,0.0063,0.0069,-0.0149,0.0062,0.0654,0.3087,0
12608247,0.9998,0.0063,0.0069,-0.0149,0.0132,0.0726,0.3010,0
12608414,0.9998,0.0063,0.0069,-0.0149,-0.0008,0.0660,0.2943,0
12608581,0.9998,0.0063,0.0069,-0.0149,-0.0011,0.0748,0.3362,0
12608747,0.9998,0.0062,0.0069,-0.0149,0.0027,0.0619,0.3110,0
12608914,0.9998,0.0063,0.0069,-0.0149,-0.0034,0.0675,0.3096,0
12609081,0.9998,0.0063,0.0069,-0.0149,0.0173,0.0572,0.2808,0
12609247,0.9998,0.0062,0.0069,-0.0149,0.0047,0.0589,0.3097,0
12609414,0.9998,0.0062,0.0069,-0.0149,0.0079,0.0665,0.3130,0
12609581,0.9998,0.0062,0.0069,-0.0149,0.0032,0.0643,0.3400,0
12609747,0.9998,0.0062,0.0069,-0.0149,0.0157,0.0562,0.3208,0
12609914,0.9998,0.0062,0.0069,-0.0149,0.0156,0.0562,0.3091,0
12610081,0.9998,0.0062,0.0069,-0.0149,0.0155,0.0668,0.3298,0
12610247,0.9998,0.0062,0.0069,-0.0149,0.0107,0.0549,0.3085,0
12610414,0.9998,0.0062,0.0069,-0.0149,0.0035,0.0660,0.3142,0
12610581,0.9998,0.0062,0.0069,-0.0149,0.0003,0.0747,0.3205,0
12610747,0.9998,0.0062,0.0069,-0.0149,0.0088,0.0692,0.3105,0
12610914,0.9998,0.0062,0.0069,-0.0149,0.0049,0.0557,0.3174,0
12611081,0.9998,0.0062,0.0069,-0.0151,0.0097,0.0638,0.3021,0
12611247,0.9998,0.0062,0.0069,-0.0152,-0.0141,0.0695,0.3127,0
12611414,0.9998,0.0062,0.0069,-0.0152,-0.0018,0.0501,0.3077,0
12611581,0.9998,0.0062,0.0069,-0.0153,-0.0021,0.0683,0.3237,0
12611747,0.9998,0.0062,0.0069,-0.0153,-0.0015,0.0576,0.3032,0
12611914,0.9998,0.0062,0.0069,-0.0154,0.0061,0.0773,0.3214,0
12612081,0.9998,0.0062,0.0070,-0.0154,-0.0021,0.0690,0.2937,0
12612247,0.9998,0.0062,0.0070,-0.0154,0.0038,0.0705,0.3270,0
12612414,0.9998,0.0062,0.0070,-0.0155,0.0216,0.0504,0.2994,0
12612581,0.9998,0.0062,0.0070,-0.0155,0.0005,0.0601,0.3182,0
12612747,0.9998,0.0062,0.0069,-0.0156,-0.0149,0.0755,0.3156,0
12612914,0.9998,0.0062,0.0070,-0.0156,0.0138,0.0728,0.3075,0
12613081,0.9998,0.0062,0.0069,-0.0156,0.0028,0.0673,0.3143,0
12613247,0.9998,0.0062,0.0069,-0.0157,-0.0004,0.0512,0.3410,0
12613414,0.9998,0.0062,0.0069,-0.0157,-0.0022,0.0631,0.3224,0
12613581,0.9998,0.0061,0.0069,-0.0157,-0.0023,0.0737,0.3215,0
12613747,0.9998,0.0061,0.0069,-0.0158,0.0015,0.0733,0.3069,0
12613914,0.9998,0.0061,0.0069,-0.0158,0.0172,0.0634,0.3167,0
12614081,0.9998,0.0061,0.0069,-0.0158,0.0024,0.0585,0.3269,0
12614247,0.9998,0.0061,0.0069,-0.0158,-0.0026,0.0758,0.2734,0
12614414,0.9998,0.0061,0.0069,-0.0159,0.0174,0.0661,0.3319,0
12614581,0.9998,0.0061,0.0069,-0.0159,0.0013,0.0798,0.3061,0
12614747,0.9998,0.0061,0.0069,-0.0159,0.0008,0.0695,0.3265,0
12614914,0.9998,0.0061,0.0069,-0.0160,-0.0023,0.0725,0.3050,0
12615081,0.9998,0.0061,0.0069,-0.0160,0.0000,0.0738,0.3301,0
12615248,0.9998,0.0061,0.0069,-0.0160,0.0006,0.0709,0.3061,0
12615414,0.9998,0.0061,0.0069,-0.0161,0.0099,0.0752,0.3183,0
12615581,0.9998,0.0061,0.0069,-0.0161,-0.0111,0.0512,0.2975,0
12615748,0.9998,0.0061,0.0069,-0.0161,-0.0078,0.0688,0.3125,0
12615914,0.9998,0.0061,0.0069,-0.0161,-0.0042,0.0757,0.3196,0
12616081,0.9998,0.0061,0.0069,-0.0162,-0.0050,0.0734,0.3096,0
12616248,0.9998,0.0061,0.0069,-0.0162,0.0108,0.0839,0.3086,0
12616414,0.9998,0.0061,0.0069,-0.0162,-0.0007,0.0706,0.3137,0
12616581,0.9998,0.0061,0.0069,-0.0162,0.0146,0.0630,0.3128,0
12616748,0.9998,0.0061,0.0069,-0.0163,-0.0006,0.0688,0.3172,0
12616914,0.9998,0.0061,0.0069,-0.0163,0.0034,0.0815,0.3124,0
12617081,0.9998,0.0061,0.0069,-0.0163,0.0095,0.0616,0.3227,0
12617248,0.9998,0.0061,0.0069,-0.0163,0.0008,0.0631,0.3021,0
12617414,0.9998,0.0061,0.0069,-0.0163,0.0045,0.0745,0.3195,0
12617581,0.9998,0.0061,0.0069,-0.0164,0.0109,0.0790,0.3158,0
12617748,0.9998,0.0060,0.0069,-0.0164,0.0006,0.0703,0.3228,0
12617914,0.9998,0.0061,0.0069,-0.0164,0.0073,0.0709,0.3020,0
12618081,0.9998,0.0060,0.0069,-0.0164,-0.0017,0.0667,0.2985,0
12618248,0.9998,0.0060,0.0069,-0.0165,0.0135,0.0759,0.3176,0
12618414,0.9998,0.0060,0.0069,-0.0165,0.0111,0.0789,0.3350,0
12618581,0.9998,0.0060,0.0069,-0.0165,0.0117,0.0759,0.3092,0
12618748,0.9998,0.0060,0.0069,-0.0166,0.0085,0.0761,0.3167,0
12618914,0.9998,0.0060,0.0069,-0.0166,0.0048,0.0722,0.3019,0
12619081,0.9998,0.0060,0.0069,-0.0166,0.0002,0.0592,0.3336,0
12619248,0.9998,0.0060,0.0069,-0.0166,-0.0071,0.0809,0.3033,0
12619414,0.9998,0.0060,0.0069,-0.0167,-0.0015,0.0768,0.3070,0
12619581,0.9998,0.0060,0.0069,-0.0167,0.0025,0.0770,0.3250,0
12619748,0.9998,0.0060,0.0069,-0.0167,0.0082,0.0659,0.3170,0
12619914,0.9998,0.0060,0.0069,-0.0167,-0.0027,0.0533,0.3040,0
12620081,0.9998,0.0060,0.0069,-0.0168,0.0193,0.0752,0.2974,0
12620248,0.9998,0.0060,0.0069,-0.0168,0.0047,0.0768,0.3197,0
12620414,0.9998,0.0060,0.0069,-0.0168,-0.0009,0.0829,0.3265,0
12620581,0.9998,0.0060,0.0069,-0.0169,-0.0003,0.0737,0.3340,0
12620748,0.9998,0.0060,0.0069,-0.0169,0.0092,0.0733,0.3267,0
12620914,0.9998,0.0060,0.0069,-0.0169,-0.0041,0.0880,0.3191,0
12621081,0.9998,0.0060,0.0069,-0.0169,0.0004,0.0801,0.3226,0
12621248,0.9998,0.0060,0.0069,-0.0170,0.0058,0.0801,0.3230,0
12621414,0.9998,0.0060,0.0069,-0.0170,0.0165,0.0747,0.3138,0
12621581,0.9998,0.0060,0.0069,-0.0170,0.0123,0.0646,0.3217,0
12621748,0.9998,0.0059,0.0069,-0.0170,0.0064,0.0624,0.2836,0
12621914,0.9998,0.0059,0.0069,-0.0171,-0.0009,0.0614,0.3331,0
12622081,0.9998,0.0059,0.0069,-0.0171,0.0051,0.0754,0.3165,0
12622248,0.9998,0.0059,0.0069,-0.0171,0.0033,0.0831,0.3023,0
12622414,0.9998,0.0059,0.0069,-0.0171,0.0076,0.0738,0.2947,0
12622581,0.9998,0.0059,0.0069,-0.0172,0.0125,0.0727,0.3205,0
12622748,0.9998,0.0059,0.0069,-0.0172,-0.0025,0.0836,0.3233,0
12622914,0.9998,0.0059,0.0069,-0.0172,0.0040,0.0768,0.3093,0
12623081,0.9998,0.0059,0.0069,-0.0173,0.0009,0.0795,0.3056,0
12623248,0.9998,0.0059,0.0069,-0.0173,0.0021,0.0683,0.3267,0
12623414,0.9998,0.0059,0.0069,-0.0173,0.0038,0.0581,0.3334,0
12623581,0.9998,0.0059,0.0069,-0.0173,0.0090,0.0758,0.3203,0
12623748,0.9998,0.0059,0.0069,-0.0173,0.0100,0.0837,0.3093,0
12623914,0.9998,0.0059,0.0069,-0.0173,0.0072,0.0763,0.3260,0
12624081,0.9998,0.0059,0.0069,-0.0174,0.0012,0.0591,0.3130,0
12624248,0.9998,0.0059,0.0069,-0.0174,0.0127,0.0615,0.3180,0
12624414,0.9998,0.0059,0.0069,-0.0174,0.0034,0.0968,0.3332,0
12624581,0.9998,0.0059,0.0069,-0.0174,0.0139,0.0834,0.3203,0
12624748,0.9998,0.0059,0.0069,-0.0175,-0.0165,0.0346,0.3200,0
12624914,0.9998,0.0061,0.0067,-0.0173,0.0128,0.0418,0.3062,0
12625081,0.9998,0.0061,0.0067,-0.0173,0.0062,0.0951,0.3560,0
12625248,0.9998,0.0061,0.0067,-0.0173,-0.0300,0.1203,0.2684,0
12625414,0.9998,0.0060,0.0067,-0.0174,0.0104,0.0742,0.3452,0
12625581,0.9998,0.0061,0.0067,-0.0174,0.0169,0.0189,0.2992,0
12625748,0.9998,0.0061,0.0067,-0.0174,0.0002,0.0577,0.3478,0
12625914,0.9998,0.0060,0.0067,-0.0174,0.0041,0.0935,0.3025,0
12626081,0.9998,0.0060,0.0067,-0.0174,-0.0090,0.1125,0.3128,0
12626248,0.9998,0.0060,0.0067,-0.0174,0.0009,0.0783,0.2862,0
12626414,0.9998,0.0060,0.0067,-0.0175,0.0189,0.0547,0.3286,0
12626581,0.9998,0.0060,0.0067,-0.0175,0.0040,0.0380,0.3330,0
12626748,0.9998,0.0060,0.0067,-0.0175,0.0013,0.0847,0.3045,0
12626914,0.5328,0.0089,-0.0014,-0.8462,0.0985,-0.0216,0.3400,0
12627081,0.5328,0.0089,-0.0014,-0.8462,0.0643,-0.0231,0.3112,0
12627248,0.5328,0.0089,-0.0014,-0.8462,0.0492,-0.0362,0.3060,0
12627414,0.5328,0.0089,-0.0013,-0.8462,0.0431,-0.0102,0.3182,0
12627581,0.5327,0.0089,-0.0014,-0.8462,0.0545,-0.0364,0.3167,0
12627748,0.5327,0.0089,-0.0013,-0.8462,0.0650,-0.0286,0.3069,0
12627914,0.5327,0.0089,-0.0013,-0.8463,0.0737,-0.0265,0.3114,0
12628081,0.5327,0.0089,-0.0013,-0.8463,0.0571,-0.0270,0.3130,0
12628248,0.5327,0.0089,-0.0013,-0.8463,0.0598,-0.0351,0.3217,0
12628414,0.5326,0.0089,-0.0013,-0.8463,0.0576,-0.0334,0.3187,0
12628581,0.5326,0.0089,-0.0013,-0.8463,0.0719,-0.0402,0.3331,0
12628748,0.5326,0.0089,-0.0013,-0.8463,0.0660,-0.0393,0.3072,0
12628914,0.5326,0.0089,-0.0013,-0.8463,0.0652,-0.0233,0.3215,0
12629081
12629248
12629414
12629581
