PacketCounter,SampleTimeFine,Quat_W,Quat_X,Quat_Y,Quat_Z,FreeAcc_X,FreeAcc_Y,FreeAcc_Z,Status
1, 1289361680, 0.8713088, -0.0693046, -0.44641486, -0.19165917, 0.31432536, 0.18165088, 0.101882935, 0
2, 1289378347, 0.87130904, -0.068581015, -0.44701642, -0.1905131, 0.21391843, 0.26396236, 0.31827545, 0
3, 1289395014, 0.8714275, -0.06773769, -0.4473932, -0.18938567, 0.17524712, 0.20174749, 0.2924242, 0
4, 1289411681, 0.87160146, -0.0674453, -0.44739285, -0.18868825, 0.20071195, 0.13491331, 0.18830204, 0
5, 1289428348, 0.87181747, -0.06698244, -0.44737473, -0.18789732, 0.22060505, 0.07928915, 0.14453506, 0
6, 1289445015, 0.8719575, -0.06657506, -0.44744197, -0.1872309, 0.20740214, 0.12985975, 0.19971752, 0
7, 1289461682, 0.87202823, -0.06644135, -0.44754946, -0.18669079, 0.26890576, 0.122287065, 0.25759315, 0
8, 1289478349, 0.87204516, -0.06620346, -0.44782662, -0.18603046, 0.22380932, 0.18246095, 0.28163815, 0
9, 1289495016, 0.8720539, -0.06578098, -0.4481451, -0.18537153, 0.19783176, 0.1964243, 0.25047684, 0
10, 1289511683, 0.872039, -0.06551898, -0.44845212, -0.18479039, 0.21359748, 0.15897074, 0.20691872, 0
11, 1289528350, 0.8720414, -0.06511606, -0.4487742, -0.18413906, 0.23605338, 0.075686574, 0.17447853, 0
12, 1289545017, 0.8719419, -0.06477572, -0.44934934, -0.18332489, 0.22292064, 0.13899964, 0.17171574, 0
13, 1289561684, 0.87177664, -0.06456276, -0.4500063, -0.18257388, 0.19657786, 0.2595689, 0.21901226, 0
14, 1289578351, 0.87169325, -0.064394906, -0.45040274, -0.18205276, 0.1611211, 0.27060428, 0.18163872, 0
15, 1289595018, 0.8717083, -0.06445161, -0.45045596, -0.1818291, 0.2232434, 0.16551884, 0.14466953, 0
16, 1289611685, 0.87176067, -0.06442828, -0.45050207, -0.18147166, 0.19910489, 0.14796054, 0.19542027, 0
17, 1289628352, 0.87186265, -0.064508274, -0.4504256, -0.18114349, 0.17227753, 0.19006927, 0.2517166, 0
18, 1289645019, 0.87200624, -0.064612016, -0.45022744, -0.18090744, 0.24490225, 0.20339416, 0.22031403, 0
19, 1289661686, 0.87215364, -0.06462197, -0.45002425, -0.18069826, 0.32137945, 0.12131875, 0.17295742, 0
20, 1289678353, 0.8722581, -0.064490184, -0.44996655, -0.18038405, 0.22900467, 0.12957224, 0.19353008, 0
21, 1289695020, 0.87240314, -0.06441682, -0.44980428, -0.18011494, 0.18893997, 0.19824713, 0.21935654, 0
22, 1289711687, 0.87257046, -0.06437797, -0.4495859, -0.17986229, 0.23923664, 0.13787638, 0.14608479, 0
23, 1289728354, 0.8726863, -0.06436074, -0.44949815, -0.1795262, 0.30203933, 0.12273739, 0.10762501, 0
24, 1289745021, 0.87271523, -0.064329885, -0.44960096, -0.1791387, 0.30300578, 0.12696369, 0.11614704, 0
25, 1289761688, 0.87276566, -0.06436096, -0.44964024, -0.17878266, 0.2088362, 0.2161381, 0.22773266, 0
26, 1289778355, 0.87292004, -0.06457017, -0.44936937, -0.17863406, 0.14509657, 0.2407569, 0.28576946, 0
27, 1289795022, 0.87307864, -0.064800456, -0.4490734, -0.17851983, 0.20604631, 0.15914066, 0.13355541, 0
28, 1289811689, 0.8731993, -0.06487159, -0.44892094, -0.17828727, 0.2514392, 0.12843361, 0.1420145, 0
29, 1289828356, 0.8733225, -0.06484679, -0.4487667, -0.17808144, 0.270296, 0.12332551, 0.23746872, 0
30, 1289845023, 0.8734482, -0.064919814, -0.44854733, -0.17799124, 0.27802286, 0.10109508, 0.29074, 0
31, 1289861690, 0.8735982, -0.06494538, -0.44834414, -0.17775705, 0.27240285, 0.12642188, 0.2042818, 0
32, 1289878357, 0.8736964, -0.06475225, -0.44832656, -0.17738922, 0.29235405, 0.08186475, 0.16106033, 0
33, 1289895024, 0.8737622, -0.064440385, -0.4484269, -0.1769235, 0.2677529, 0.11228173, 0.18021297, 0
34, 1289911691, 0.8738521, -0.064141534, -0.44847474, -0.17646621, 0.25931346, 0.13092339, 0.16583824, 0
35, 1289928358, 0.87394905, -0.06367448, -0.44858292, -0.17587975, 0.29158652, 0.05857157, 0.13300037, 0
36, 1289945025, 0.87403065, -0.0632097, -0.44873887, -0.17524338, 0.2785378, 0.1431729, 0.18184948, 0
37, 1289961692, 0.87410593, -0.06283485, -0.44887558, -0.17465147, 0.31035757, 0.15488961, 0.20420933, 0
38, 1289978359, 0.874133, -0.062350646, -0.44912887, -0.17403746, 0.33389527, 0.04176954, 0.13964081, 0
39, 1289995026, 0.87409467, -0.06158302, -0.44965085, -0.17315313, 0.33753362, 0.040915053, 0.1553011, 0
40, 1290011693, 0.873986, -0.06078338, -0.45037028, -0.1721105, 0.28261873, 0.04258777, 0.15530968, 0
41, 1290028360, 0.8738604, -0.059583813, -0.4513269, -0.17065701, 0.23343559, -0.026271265, 0.14493752, 0
42, 1290045027, 0.8736499, -0.05849444, -0.4524353, -0.16917102, 0.23630773, 0.21781331, 0.14080429, 0
43, 1290061694, 0.8732423, -0.05798837, -0.4537946, -0.16780257, 0.2941502, 0.19624919, 0.18127918, 0
44, 1290078361, 0.87283456, -0.05679124, -0.4553415, -0.16613516, 0.24448293, 0.06687491, 0.2659607, 0
45, 1290095028, 0.8724565, -0.055406198, -0.45690882, -0.1642743, 0.19999358, 0.08871888, 0.29981327, 0
46, 1290111695, 0.87220126, -0.054187596, -0.4581983, -0.16243362, 0.24869125, 0.13000958, 0.18262672, 0
47, 1290128362, 0.87198955, -0.05304221, -0.45925522, -0.16095825, 0.25984365, 0.14372995, 0.12920666, 0
48, 1290145029, 0.8717851, -0.051821183, -0.4603061, -0.1594536, 0.25086573, 0.15966204, 0.19997883, 0
49, 1290161696, 0.8716343, -0.0505618, -0.46117267, -0.15817338, 0.23202164, 0.109426215, 0.26346207, 0
50, 1290178363, 0.871686, -0.04819179, -0.46189266, -0.15651847, 0.32430837, -0.013809077, 0.14762878, 0
51, 1290195030, 0.8719121, -0.042030785, -0.46325433, -0.15296994, 0.57086146, -0.3669338, -0.1355114, 0
52, 1290211697, 0.8724496, -0.031240623, -0.46494797, -0.14724477, 0.118225835, 0.30339697, 0.33617687, 0
53, 1290228364, 0.8735149, -0.022741275, -0.46436036, -0.14431214, -0.3912697, 1.2249854, 0.96162224, 0
54, 1290245031, 0.8754054, -0.017809223, -0.4610039, -0.14430949, -0.06496672, 0.49131477, 0.6494255, 0
55, 1290261698, 0.8768543, -0.0145780835, -0.4583109, -0.14445391, 0.37911308, -0.47716808, -0.27295685, 0
56, 1290278365, 0.8765892, -0.010100802, -0.4594147, -0.14293054, 0.28505123, -0.442427, -0.4085064, 0
57, 1290295032, 0.87456936, -0.0044462737, -0.4640473, -0.14060733, -0.050617192, 0.48189467, 0.054719925, 0
58, 1290311699, 0.8718881, -5.194377E-4, -0.46935534, -0.13970773, -0.017586, 0.80484724, 0.39647293, 0
59, 1290328366, 0.87044674, -0.0032764487, -0.4711792, -0.14249091, 0.5753438, -0.04593495, -0.023768425, 0
60, 1290345033, 0.86899287, -0.00542082, -0.47325498, -0.14440733, 0.6379154, -1.2758106, -0.26372337, 0
61, 1290361700, 0.8679325, -0.0044781705, -0.47513536, -0.14464271, 0.37791795, -0.6079399, 0.055553436, 0
62, 1290378367, 0.86679566, -0.004783637, -0.47725764, -0.14446229, 0.2010955, 0.40593338, 0.24741268, 0
63, 1290395034, 0.8654746, -0.0049154544, -0.47962898, -0.14452438, 0.314666, 0.9524683, 0.56612396, 0
64, 1290411701, 0.8647004, -0.0055921273, -0.4808692, -0.14501242, 0.34433377, 0.14687735, 0.34872055, 0
65, 1290428368, 0.8643505, -0.006219766, -0.48146766, -0.14508718, 0.47378266, -0.5924267, 0.111925125, 0
66, 1290445035, 0.8643341, -0.006313863, -0.48143914, -0.14527558, 0.31668657, -0.15282963, 0.18252468, 0
67, 1290461702, 0.8644474, -0.0065296628, -0.4811598, -0.14551613, 0.28008497, 0.17455833, 0.25825882, 0
68, 1290478369, 0.8644525, -0.006824326, -0.48105085, -0.14583278, 0.2485516, 0.16056287, 0.16848755, 0
69, 1290495036, 0.8644733, -0.0072615193, -0.48091498, -0.14613652, 0.29119492, 0.10300491, 0.24120235, 0
70, 1290511703, 0.8645575, -0.007228897, -0.4807054, -0.14632931, 0.34025466, -0.005771342, 0.33824062, 0
71, 1290528370, 0.8644722, -0.0066924766, -0.48094478, -0.14607194, 0.36963677, -0.037210353, 0.40443897, 0
72, 1290545037, 0.8644021, -0.0060521485, -0.48114607, -0.1458513, 0.29406124, 0.082522735, 0.23610973, 0
73, 1290561704, 0.86436874, -0.005136025, -0.48128113, -0.14563881, 0.28568667, 0.036942963, 0.150424, 0
74, 1290578371, 0.8643275, -0.0041380236, -0.48150483, -0.14517516, 0.2642415, 0.10710494, 0.22930717, 0
75, 1290595038, 0.8643731, -0.0031824792, -0.48157206, -0.14470361, 0.21233508, 0.18477787, 0.23984814, 0
76, 1290611705, 0.8645028, -0.0020907, -0.481462, -0.14431438, 0.20426804, 0.13631901, 0.112644196, 0
77, 1290628372, 0.8647544, -9.7538624E-4, -0.48111877, -0.14396322, 0.18113221, 0.07922454, 0.13541126, 0
78, 1290645039, 0.8650041, 4.5980513E-4, -0.4808704, -0.14329413, 0.0975348, 0.15050867, 0.18768597, 0
79, 1290661706, 0.86530006, 0.0017205402, -0.480507, -0.14271481, 0.11570193, 0.17298958, 0.107151985, 0
80, 1290678373, 0.8655341, 0.0027974453, -0.48026723, -0.14208412, 0.16324268, 0.07233209, -0.038028717, 0
81, 1290695040, 0.8659217, 0.0037671523, -0.47974446, -0.14146453, 0.18852021, 0.20052761, 0.09257698, 0
82, 1290711707, 0.8663871, 0.0045663104, -0.47907007, -0.1408754, 0.18932351, 0.1838912, 0.17195415, 0
83, 1290728374, 0.86687106, 0.005247644, -0.478357, -0.14029686, 0.19230741, 0.20414376, 0.0568552, 0
84, 1290745041, 0.86728096, 0.0058653974, -0.47780883, -0.13960531, 0.29388288, 0.1596319, 0.014455795, 0
85, 1290761708, 0.8676412, 0.006513754, -0.47739384, -0.13875665, 0.24263717, 0.05839504, 0.10776901, 0
86, 1290778375, 0.8680424, 0.007156061, -0.4769355, -0.13778746, 0.2636581, 0.051138896, 0.11505318, 0
87, 1290795042, 0.8684541, 0.00796696, -0.4765145, -0.13660175, 0.24204934, 0.1298592, 0.14745331, 0
88, 1290811709, 0.8689035, 0.0087524, -0.47600603, -0.13546307, 0.31003258, 0.11768421, 0.11182785, 0
89, 1290828376, 0.8693728, 0.009548669, -0.47546634, -0.13428764, 0.35855362, 0.06846724, 0.17474079, 0
90, 1290845043, 0.869806, 0.0102868555, -0.47497314, -0.13316938, 0.48232666, -0.056456584, 0.21437931, 0
91, 1290861710, 0.8701496, 0.011298006, -0.47467124, -0.13191326, 0.37241685, -0.057383336, 0.2765522, 0
92, 1290878377, 0.8704657, 0.012343058, -0.47439635, -0.13071768, 0.2656836, 0.07985956, 0.31413746, 0
93, 1290895044, 0.8708759, 0.013296882, -0.473885, -0.1297418, 0.24053973, 0.14897954, 0.21635342, 0
94, 1290911711, 0.87134373, 0.014166834, -0.4732168, -0.12894467, 0.22656167, 0.11356309, 0.20033932, 0
95, 1290928378, 0.8717821, 0.014940387, -0.47260332, -0.12814249, 0.20041691, 0.021500982, 0.23805618, 0
96, 1290945045, 0.87220395, 0.015567357, -0.47203544, -0.12728907, 0.28559637, 0.0021628512, 0.06450653, 0
97, 1290961712, 0.8727455, 0.016061367, -0.47116938, -0.12672248, 0.34640977, 0.19327517, 0.20021343, 0
98, 1290978379, 0.8733406, 0.016399859, -0.4701235, -0.12646386, 0.3649627, 0.048446596, 0.19001007, 0
99, 1290995046, 0.87382, 0.01693682, -0.46930277, -0.12612897, 0.31769997, -0.13259299, 0.21294022, 0
100, 1291011713, 0.87425345, 0.017740857, -0.46859324, -0.12565295, 0.401883, -0.011600727, 0.275692, 0
101, 1291028380, 0.87460977, 0.018822823, -0.4680339, -0.12509778, 0.45002323, -0.07961787, 0.022532463, 0
102, 1291045047, 0.87491876, 0.019843891, -0.46759284, -0.124427855, 0.40557542, -0.030417075, 0.17347908, 0
103, 1291061714, 0.8753698, 0.020685378, -0.46684578, -0.12392203, 0.47782913, -0.027304532, 0.37132835, 0
104, 1291078381, 0.875888, 0.021394536, -0.46591878, -0.123627484, 0.40663132, -0.03617681, 0.43863678, 0
105, 1291095048, 0.87638366, 0.022312969, -0.46498454, -0.12347031, 0.3103437, -0.03274311, 0.23912811, 0
106, 1291111715, 0.8768354, 0.023317734, -0.4641144, -0.12335041, 0.28244796, -0.057003878, 0.14592934, 0
107, 1291128382, 0.87725747, 0.024354309, -0.46333432, -0.12308108, 0.29902995, 0.05166669, 0.12966919, 0
108, 1291145049, 0.8775665, 0.025528906, -0.46281615, -0.12259016, 0.22935693, 0.11549631, 0.040668488, 0
109, 1291161716, 0.8779873, 0.026200537, -0.46196285, -0.12265387, 0.20357858, 0.17713268, 0.14869022, 0
110, 1291178383, 0.87837267, 0.02663916, -0.46117306, -0.122773126, 0.2578897, -0.050963342, 0.23609638, 0
111, 1291195050, 0.87861824, 0.027324224, -0.46075028, -0.12245182, 0.20048709, -0.060723834, 0.10811424, 0
112, 1291211717, 0.8788806, 0.028009487, -0.4602938, -0.122130126, 0.25841048, 0.028313728, 0.03154564, 0
113, 1291228384, 0.8791062, 0.028735735, -0.45988762, -0.12186757, 0.25049722, 0.011730254, 0.2173996, 0
114, 1291245051, 0.8792992, 0.029550066, -0.4596032, -0.121353075, 0.15386543, 0.068264715, 0.2408905, 0
115, 1291261718, 0.87947345, 0.03059204, -0.4593628, -0.120740324, 0.06324478, 0.23317188, 0.09047794, 0
116, 1291278385, 0.879749, 0.031055009, -0.45884696, -0.12057611, 0.22922818, 0.19939314, 0.0052700043, 0
117, 1291295052, 0.87987477, 0.031573813, -0.4586371, -0.12032187, 0.2253556, -0.004119693, 0.07489109, 0
118, 1291311719, 0.8799298, 0.032175273, -0.4586179, -0.11983224, 0.29001075, 0.019403677, 0.021570206, 0
119, 1291328386, 0.8799505, 0.03265493, -0.45865765, -0.119396746, 0.27952486, 0.045552038, 0.09454155, 0
120, 1291345053, 0.8799485, 0.0330211, -0.45871514, -0.11908994, 0.23059966, 0.08165854, 0.19533443, 0
121, 1291361720, 0.8798862, 0.033420786, -0.45894924, -0.118535876, 0.09741544, 0.121794485, 0.37376404, 0
122, 1291378387, 0.8799612, 0.03353025, -0.45886824, -0.11826118, 0.2405661, 0.10965764, 0.18741131, 0
123, 1291395054, 0.8799279, 0.034182325, -0.45905516, -0.11759634, 0.18713756, 0.17254157, 0.20048809, 0
124, 1291411721, 0.8800386, 0.033991538, -0.45883977, -0.117662385, 0.24915123, 0.1872978, 0.11933613, 0
125, 1291428388, 0.8801196, 0.03402341, -0.45868036, -0.11766924, 0.25455263, -0.009431409, 0.08149719, 0
126, 1291445055, 0.8801886, 0.034098517, -0.45858014, -0.11752257, 0.22848746, 0.03707623, 0.14289379, 0
127, 1291461722, 0.8803893, 0.034067526, -0.4582202, -0.11743136, 0.33708927, 0.006317929, 0.047110558, 0
128, 1291478389, 0.8805848, 0.033852983, -0.457844, -0.117495164, 0.40168318, 0.04058699, 0.14120197, 0
129, 1291495056, 0.8808411, 0.03359634, -0.45738187, -0.11744723, 0.41145238, -0.04201343, 0.12283802, 0
130, 1291511723, 0.88106334, 0.03355878, -0.4569474, -0.117482, 0.39456564, -0.057913687, 0.13079071, 0
131, 1291528390, 0.8812534, 0.033259965, -0.45654795, -0.117694855, 0.38253036, 0.0024150715, 0.24060726, 0
132, 1291545057, 0.88137597, 0.033081196, -0.45627022, -0.11790342, 0.34357116, 0.017278124, 0.21303177, 0
133, 1291561724, 0.8815164, 0.032845248, -0.45595196, -0.11815154, 0.2980098, 0.13329671, 0.25052834, 0
134, 1291578391, 0.88155895, 0.03256719, -0.4557787, -0.118578784, 0.23769039, 0.033424743, 0.20572567, 0
135, 1291595058, 0.8816346, 0.032667812, -0.4556113, -0.11863132, 0.20561583, 0.002910446, 0.20005894, 0
136, 1291611725, 0.8816984, 0.03288624, -0.45546937, -0.11864219, 0.1672534, 0.03615381, 0.20635891, 0
137, 1291628392, 0.8817828, 0.03306341, -0.4553091, -0.11857994, 0.018916795, 0.25218803, 0.2716112, 0
138, 1291645059, 0.88183254, 0.032733403, -0.45505798, -0.1192649, 0.11050436, 0.12387875, 0.09276581, 0
139, 1291661726, 0.8820173, 0.03309109, -0.4548721, -0.11850549, 0.16277242, 0.06793827, 0.15147781, 0
140, 1291678393, 0.8820831, 0.033036258, -0.45476753, -0.118431926, 0.18413176, 0.03700968, 0.06791878, 0
141, 1291695060, 0.88211936, 0.032970816, -0.45471585, -0.118378766, 0.2118259, 0.017294176, 0.126894, 0
142, 1291711727, 0.8821713, 0.032827236, -0.4547126, -0.11804432, 0.15118639, 0.14496133, 0.2289238, 0
143, 1291728394, 0.88222915, 0.03217502, -0.45455492, -0.118398786, 0.20316389, 0.1378926, 0.18658829, 0
144, 1291745061, 0.8822984, 0.03178057, -0.4544588, -0.11835644, 0.19566861, 0.0014720564, 0.17279053, 0
145, 1291761728, 0.8822909, 0.031462394, -0.45449153, -0.11837299, 0.20704274, -0.08490222, 0.071183205, 0
146, 1291778395, 0.8822622, 0.031457085, -0.45468086, -0.11786024, 0.14808583, 0.061039977, 0.153409, 0
147, 1291795062, 0.8822824, 0.03126646, -0.45472196, -0.11760091, 0.18880005, 0.099166326, 0.1854868, 0
148, 1291811729, 0.8822711, 0.03105915, -0.45478827, -0.1174842, 0.2528486, -0.050276738, 0.25452423, 0
149, 1291828396, 0.8822409, 0.030926613, -0.45493713, -0.11716831, 0.18044458, 0.0419928, 0.22754002, 0
150, 1291845063, 0.88220495, 0.031186994, -0.4551278, -0.11662908, 0.14310461, 0.055925373, 0.11912155, 0
151, 1291861730, 0.8821448, 0.031230323, -0.45534614, -0.11622007, 0.16928513, 0.058434263, 0.106188774, 0
152, 1291878397, 0.88212156, 0.03134855, -0.4555364, -0.115617916, 0.2145796, 0.07371323, 0.124103546, 0
153, 1291895064, 0.8820959, 0.031402327, -0.4557026, -0.11514255, 0.22214863, 0.08737528, 0.21213722, 0
154, 1291911731, 0.88199013, 0.031194288, -0.45597962, -0.114910655, 0.14193788, 0.074151486, 0.28534222, 0
155, 1291928398, 0.88194114, 0.031077841, -0.45616308, -0.11459014, 0.18955731, -0.02337662, 0.19996834, 0
156, 1291945065, 0.8819187, 0.030874943, -0.45629886, -0.11427829, 0.23270604, -0.022458721, 0.14567375, 0
157, 1291961732, 0.88179475, 0.030613407, -0.45661548, -0.11403886, 0.18820283, 0.106587686, 0.2288065, 0
158, 1291978399, 0.8816531, 0.030277114, -0.45682797, -0.114372544, 0.31189668, 0.035805155, 0.27566433, 0
159, 1291995066, 0.8816478, 0.030286074, -0.4569476, -0.11393221, 0.27063844, -0.0049891584, 0.24702644, 0
160, 1292011733, 0.8814686, 0.029933527, -0.45720482, -0.11437814, 0.2744158, -0.07724402, 0.07700634, 0
161, 1292028400, 0.8813536, 0.030098144, -0.4575013, -0.11403498, 0.1514953, 0.066270806, 0.0947752, 0
162, 1292045067, 0.881177, 0.030195428, -0.45792982, -0.11365441, 0.1458887, 0.073626325, 0.07796478, 0
163, 1292061734, 0.88106763, 0.030260129, -0.45823568, -0.113251284, 0.2722151, -0.016772943, 0.12857246, 0
164, 1292078401, 0.880954, 0.030485561, -0.4586021, -0.11258894, 0.27949044, 0.03588207, 0.23203468, 0
165, 1292095068, 0.8807988, 0.030571941, -0.45902693, -0.11204731, 0.1932864, 0.11593727, 0.23643398, 0
166, 1292111735, 0.88063866, 0.030694086, -0.45942253, -0.11165064, 0.24970956, -0.0022503703, 0.24202442, 0
167, 1292128402, 0.88058716, 0.030855209, -0.4596051, -0.11126076, 0.1501636, 0.031747416, 0.3104906, 0
168, 1292145069, 0.8806233, 0.030954368, -0.45961124, -0.110921405, 0.26753697, 0.057276074, 0.13703728, 0
169, 1292161736, 0.8804483, 0.03103483, -0.46005252, -0.110458486, 0.20242532, -0.022616379, 0.11007023, 0
170, 1292178403, 0.88036615, 0.03108387, -0.46029884, -0.110072896, 0.20911291, -0.0508988, 0.1210413, 0
171, 1292195070, 0.8802886, 0.03116903, -0.46064243, -0.109228805, 0.22480755, 0.02863701, 0.116633415, 0
172, 1292211737, 0.88008595, 0.031207897, -0.46117765, -0.108590856, 0.25436938, 0.015535799, 0.14513016, 0
173, 1292228404, 0.8800797, 0.031403802, -0.46129903, -0.10806748, 0.15573622, 0.106953144, 0.35200882, 0
174, 1292245071, 0.8802239, 0.031560313, -0.4610915, -0.10773331, 0.18135126, 0.11348749, 0.1980629, 0
175, 1292261738, 0.8803449, 0.03193942, -0.46096724, -0.10716213, 0.1825247, 0.020544626, 0.062117577, 0
176, 1292278405, 0.8803016, 0.03223186, -0.46114662, -0.1066578, 0.23881912, -0.09116813, 0.13341331, 0
177, 1292295072, 0.88032097, 0.032254186, -0.4611597, -0.10643486, 0.19205843, -0.039627086, 0.22658539, 0
178, 1292311739, 0.8803648, 0.03245231, -0.4611418, -0.106088, 0.18630654, 0.08759023, 0.064621925, 0
179, 1292328406, 0.88027215, 0.032676052, -0.46145284, -0.10543462, 0.19692296, 0.09752289, 0.09435654, 0
180, 1292345073, 0.88017607, 0.0333571, -0.46190357, -0.10404048, 0.23262379, -0.08219865, 0.22471333, 0
181, 1292361740, 0.880089, 0.033736296, -0.46227118, -0.10301589, 0.25599164, -0.062153142, 0.27898312, 0
182, 1292378407, 0.8799611, 0.033982586, -0.46264032, -0.102368906, 0.21362698, 0.0030437575, 0.28831577, 0
183, 1292395074, 0.8799685, 0.03416339, -0.46272483, -0.10186219, 0.16455919, 0.08957666, 0.2473793, 0
184, 1292411741, 0.8800736, 0.03434726, -0.46260726, -0.10142597, 0.15927355, 0.07157261, 0.22565556, 0
185, 1292428408, 0.8801398, 0.034547012, -0.46257293, -0.100938566, 0.18050548, -0.018625936, 0.24976826, 0
186, 1292445075, 0.8802058, 0.034981024, -0.4625869, -0.10014427, 0.13229375, 0.0019647907, 0.16774273, 0
187, 1292461742, 0.88027704, 0.03519511, -0.4625337, -0.09968875, 0.1787241, 0.028064426, 0.09494877, 0
188, 1292478409, 0.88035595, 0.03547001, -0.4625015, -0.099042565, 0.17187297, 0.051287983, 0.08678913, 0
189, 1292495076, 0.8805205, 0.035770796, -0.4623592, -0.09813197, 0.12237136, 0.058429874, 0.086120605, 0
190, 1292511743, 0.8806619, 0.03580492, -0.4621794, -0.09769803, 0.1878899, 0.07747672, 0.06450081, 0
191, 1292528410, 0.8807783, 0.035717934, -0.46206215, -0.097233534, 0.13485341, 0.0620964, 0.02463913, 0
192, 1292545077, 0.8807882, 0.035366785, -0.46216822, -0.09676509, 0.17943084, 0.031955954, -0.031697273, 0
193, 1292561744, 0.8807579, 0.03483981, -0.46226692, -0.09676038, 0.2655991, 3.6830743E-4, 0.09784508, 0
194, 1292578411, 0.8807553, 0.034481864, -0.4623695, -0.09642337, 0.36754337, 0.015090939, 0.20944214, 0
195, 1292595078, 0.88072467, 0.034326367, -0.46255216, -0.09588008, 0.44319043, -0.09905927, 0.3567896, 0
196, 1292611745, 0.88061965, 0.03409574, -0.4628395, -0.09553996, 0.33765075, -0.0064705187, 0.447958, 0
197, 1292628412, 0.88052535, 0.033832073, -0.46301827, -0.09563725, 0.20799802, -0.030225169, 0.41223526, 0
198, 1292645079, 0.8805636, 0.034007646, -0.4629949, -0.09533339, 0.07231672, 0.10566719, 0.26517487, 0
199, 1292661746, 0.8805385, 0.034220424, -0.46307507, -0.09510128, 0.005727743, 0.17612287, 0.104289055, 0
200, 1292678413, 0.8805288, 0.034486186, -0.46315938, -0.09468274, -0.0078059663, 0.069542006, 0.025621414, 0
201, 1292695080, 0.88066274, 0.034550793, -0.46299484, -0.09421871, 0.10823257, -0.026300183, 0.044695854, 0
202, 1292711747, 0.88067424, 0.034815915, -0.46308023, -0.09359155, 0.17090873, 0.036150146, 0.14219856, 0
203, 1292728414, 0.88096493, 0.034848895, -0.46267536, -0.09284081, 0.21919155, 0.33588633, 0.11773777, 0
204, 1292745081, 0.8808604, 0.034039143, -0.4628211, -0.09340623, 0.39442572, 0.12024036, 0.17640209, 0
205, 1292761748, 0.8806379, 0.03355824, -0.46313435, -0.09412373, 0.59196246, -0.45160317, 0.49637604, 0
206, 1292778415, 0.880605, 0.033092566, -0.46313533, -0.09458923, 0.2623729, -0.017895384, 0.56859493, 0
207, 1292795082, 0.8806644, 0.03306382, -0.46291986, -0.09509958, 0.07681157, 0.12454212, 0.2411766, 0
208, 1292811749, 0.8809128, 0.03312371, -0.4623203, -0.09569408, -0.0171126, 0.09902008, -0.034363747, 0
209, 1292828416, 0.8809038, 0.0326004, -0.46220133, -0.096527226, -0.016188966, 0.17235737, -0.065813065, 0
210, 1292845083, 0.8809708, 0.031840734, -0.4619991, -0.09713653, 0.17051625, 0.02695903, 8.72612E-4, 0
211, 1292861750, 0.8810046, 0.030624393, -0.4618856, -0.09775807, 0.272566, -0.061319493, 0.050359726, 0
212, 1292878417, 0.88103396, 0.029466568, -0.4618618, -0.09796066, 0.3371219, 0.014540593, 0.21655464, 0
213, 1292895084, 0.8810555, 0.028036322, -0.46180862, -0.09843774, 0.3951986, 0.053816374, 0.33368587, 0
214, 1292911751, 0.8808579, 0.02724138, -0.46218243, -0.09867457, 0.35413796, -0.09509491, 0.26506996, 0
215, 1292928418, 0.8806912, 0.026704893, -0.4624851, -0.09889079, 0.3197925, 0.08032825, 0.20699501, 0
216, 1292945085, 0.88050175, 0.026115853, -0.46280533, -0.09923625, 0.31163874, -0.027396556, 0.14554977, 0
217, 1292961752, 0.8804233, 0.025873952, -0.4629031, -0.09953827, 0.3200491, -0.14385633, 0.21191025, 0
218, 1292978419, 0.8803827, 0.025739782, -0.4629741, -0.09960124, 0.20500027, 0.03818832, 0.29018307, 0
219, 1292995086, 0.88038194, 0.025568433, -0.46295208, -0.099754855, 0.09056834, 0.18275173, 0.26546764, 0
220, 1293011753, 0.88043535, 0.025355864, -0.46280017, -0.100041084, 0.143844, 0.012840568, 0.15080452, 0
221, 1293028420, 0.8804615, 0.025439803, -0.46271563, -0.100182086, 0.16125879, 0.033879198, 0.15228462, 0
222, 1293045087, 0.8805378, 0.025480539, -0.46251768, -0.10041569, 0.2139077, 0.0449888, 0.18641949, 0
223, 1293061754, 0.8806308, 0.02565958, -0.4623, -0.100556776, 0.25604704, -0.040981296, 0.17622471, 0
224, 1293078421, 0.88072056, 0.02574234, -0.46210313, -0.10065476, 0.17607278, -0.011515751, 0.27179813, 0
225, 1293095088, 0.8809154, 0.02576634, -0.4616854, -0.10086029, 0.14110194, 0.049413044, 0.21143246, 0
226, 1293111755, 0.88126284, 0.025978198, -0.4609704, -0.10104128, 0.06597655, 0.1925601, 0.25863934, 0
227, 1293128422, 0.88161355, 0.026112579, -0.46022472, -0.101345226, 0.13421506, 0.08056585, 0.1909008, 0
228, 1293145089, 0.88196623, 0.02627946, -0.45950976, -0.10147643, 0.2129864, -0.08978924, 0.09403801, 0
229, 1293161756, 0.8822908, 0.02653696, -0.45887226, -0.101473495, 0.16817088, 0.04409649, 0.09989929, 0
230, 1293178423, 0.8825908, 0.026862271, -0.4582889, -0.10141563, 0.12891065, 0.067407385, 0.12197971, 0
231, 1293195090, 0.8828216, 0.027222525, -0.4578633, -0.10123109, 0.14918372, 0.005891899, 0.107266426, 0
232, 1293211757, 0.883005, 0.02767845, -0.45755392, -0.10090666, 0.1559213, 0.018245991, 0.104613304, 0
233, 1293228424, 0.8831532, 0.028173504, -0.45733154, -0.10048006, 0.1564908, 0.027989564, 0.18742657, 0
234, 1293245091, 0.8833193, 0.028679525, -0.45708126, -0.100015454, 0.19349383, 0.02118995, 0.19251156, 0
235, 1293261758, 0.8835411, 0.029218316, -0.4567117, -0.09958871, 0.24919325, 0.028141916, 0.15991688, 0
236, 1293278425, 0.88380784, 0.029770125, -0.45623162, -0.099258415, 0.24798897, 0.027729549, 0.21714115, 0
237, 1293295092, 0.88412637, 0.030243471, -0.45566127, -0.09889793, 0.32013494, -0.06700921, 0.22910118, 0
238, 1293311759, 0.88450146, 0.030935658, -0.4550001, -0.0983724, 0.25175425, -0.09512608, 0.2638731, 0
239, 1293328426, 0.88479203, 0.031624325, -0.45451206, -0.09779363, 0.22471054, -0.018316733, 0.24446869, 0
240, 1293345093, 0.88514745, 0.03249335, -0.45389694, -0.09714712, 0.10541676, 0.038135737, 0.20964146, 0
241, 1293361760, 0.8855919, 0.033313744, -0.45310506, -0.09651328, 0.1308807, 0.076622926, 0.057006836, 0
242, 1293378427, 0.88595676, 0.034092255, -0.45245272, -0.095952235, 0.19038118, 0.01769914, 0.17404842, 0
243, 1293395094, 0.886277, 0.03482732, -0.4518825, -0.095416695, 0.22528943, -0.10911143, 0.19794846, 0
244, 1293411761, 0.88645464, 0.03595862, -0.45161808, -0.09459302, 0.27632058, -0.12083454, 0.053358078, 0
245, 1293428428, 0.88664216, 0.037034236, -0.451387, -0.09351766, 0.1639244, 0.07625359, 0.054689407, 0
246, 1293445095, 0.88668907, 0.037905484, -0.45140013, -0.092659436, 0.19237804, -0.005515308, 0.07662201, 0
247, 1293461762, 0.8868726, 0.038402922, -0.45113376, -0.09199183, 0.09539577, 0.07586686, 0.22581482, 0
248, 1293478429, 0.887144, 0.038899463, -0.4506707, -0.09143238, 0.1263948, 0.035338543, 0.19394302, 0
249, 1293495096, 0.88750535, 0.03904149, -0.45003057, -0.091017246, 0.2600086, 0.050270524, 0.16108513, 0
250, 1293511763, 0.88773024, 0.03911016, -0.44962463, -0.09079993, 0.23827867, -0.05998612, 0.30342484, 0
251, 1293528430, 0.88793004, 0.03938958, -0.44929847, -0.090340346, 0.24629563, -0.041431952, 0.22652245, 0
252, 1293545097, 0.88815695, 0.039651677, -0.4489161, -0.08989447, 0.18671155, 0.08671403, 0.09777832, 0
253, 1293561764, 0.88839334, 0.039843462, -0.4485223, -0.08943878, 0.17334414, -0.015149931, 0.15377617, 0
254, 1293578431, 0.88856477, 0.039954245, -0.44827953, -0.088901795, 0.097049326, -0.09417055, 0.22099781, 0
255, 1293595098, 0.8887382, 0.040129714, -0.44804054, -0.0882937, 0.021885047, 0.080667086, 0.18135738, 0
256, 1293611765, 0.88894784, 0.0402721, -0.44774756, -0.08759941, 0.04138208, 0.16698307, 0.02946186, 0
257, 1293628432, 0.88929886, 0.04017882, -0.44715825, -0.087089695, 0.2823532, -0.03395419, -0.042832375, 0
258, 1293645099, 0.8896879, 0.04010603, -0.44649595, -0.086546525, 0.4088575, -0.17865627, 0.19990826, 0
259, 1293661766, 0.89010626, 0.039775092, -0.4457332, -0.08632878, 0.5312103, -0.15848513, 0.28943253, 0
260, 1293678433, 0.89046025, 0.039783046, -0.44510108, -0.085935816, 0.55726963, -0.1596207, 0.31216717, 0
261, 1293695100, 0.8909088, 0.03974054, -0.4442603, -0.085656285, 0.3479471, -0.029236948, 0.39078903, 0
262, 1293711767, 0.89141923, 0.039732806, -0.44327298, -0.085465, 0.21397565, -0.039166093, 0.22816086, 0
263, 1293728434, 0.89185494, 0.03982403, -0.44244522, -0.08516549, 0.2157964, -0.0450097, 0.08445358, 0
264, 1293745101, 0.89214754, 0.04002034, -0.44187665, -0.084958866, 0.21788758, -0.09156397, 0.08756828, 0
265, 1293761768, 0.89239573, 0.040348694, -0.44140208, -0.08466269, 0.19368963, -0.033362914, 0.1966753, 0
266, 1293778435, 0.8926203, 0.04063153, -0.44094098, -0.08456505, 0.1986154, -0.009822975, 0.21940327, 0
267, 1293795102, 0.89279515, 0.041097272, -0.44059825, -0.08427949, 0.18357924, -0.03927994, 0.22077942, 0
268, 1293811769, 0.8929087, 0.041570734, -0.44038063, -0.08397977, 0.20288137, -1.096331E-4, 0.17437744, 0
269, 1293828436, 0.89304924, 0.041910328, -0.44012797, -0.08364031, 0.16276303, 0.0028626702, 0.19527721, 0
270, 1293845103, 0.8931306, 0.042141072, -0.43998408, -0.08341338, 0.2175929, -0.013719799, 0.16662788, 0
271, 1293861770, 0.89314884, 0.04239076, -0.4399594, -0.08322009, 0.16271073, 0.018685292, 0.22744656, 0
272, 1293878437, 0.89321226, 0.042755358, -0.43987525, -0.082798004, 0.11430676, 0.0039350013, 0.19165993, 0
273, 1293895104, 0.89329994, 0.042993933, -0.43975654, -0.082356855, 0.17996056, 0.02845535, 0.07236767, 0
274, 1293911771, 0.8933139, 0.043435495, -0.43978056, -0.081845626, 0.14805141, 0.0015244143, 0.1455965, 0
275, 1293928438, 0.89335036, 0.043825623, -0.43976238, -0.08133522, 0.1720625, -0.04484905, 0.19280052, 0
276, 1293945105, 0.89345, 0.0440034, -0.43962854, -0.08086823, 0.1295633, 0.07303143, 0.21063519, 0
277, 1293961772, 0.89351124, 0.04420075, -0.4395669, -0.08041716, 0.1459401, 0.06595507, 0.15609646, 0
278, 1293978439, 0.8934963, 0.044488136, -0.43964124, -0.08001677, 0.13432279, -0.06756118, 0.1558199, 0
279, 1293995106, 0.8934881, 0.04497043, -0.43974367, -0.07927317, 0.13379575, -0.054054234, 0.19300175, 0
280, 1294011773, 0.89353323, 0.04506693, -0.4397295, -0.07878607, 0.14371659, 0.07347994, 0.14516068, 0
281, 1294028440, 0.89355063, 0.045251295, -0.43977585, -0.07822211, 0.15736742, 0.038618263, 0.18518066, 0
282, 1294045107, 0.8935365, 0.045484103, -0.43986705, -0.07773483, 0.1268825, -0.027178952, 0.23802757, 0
283, 1294061774, 0.89358974, 0.045546375, -0.4398366, -0.07726016, 0.13313818, -0.042005405, 0.2411604, 0
284, 1294078441, 0.8936553, 0.04581445, -0.43980426, -0.076521635, 0.12672871, -0.064458735, 0.18193531, 0
285, 1294095108, 0.89362437, 0.045913443, -0.43988854, -0.076336995, 0.13110957, -0.0076260385, 0.20657444, 0
286, 1294111775, 0.8936609, 0.046150565, -0.4398739, -0.075851396, 0.08126439, 0.061380066, 0.205657, 0
287, 1294128442, 0.8937438, 0.046176005, -0.4397698, -0.07546222, 0.1864621, -0.040515326, 0.124326706, 0
288, 1294145109, 0.8937708, 0.046428327, -0.4398026, -0.07479348, 0.18866639, -0.056908187, 0.15568924, 0
289, 1294161776, 0.89369076, 0.046723254, -0.44003066, -0.07422094, 0.29331294, -0.076702885, 0.083226204, 0
290, 1294178443, 0.8935797, 0.047072783, -0.44030765, -0.07369253, 0.15438767, 0.026275137, 0.20515633, 0
291, 1294195110, 0.89353377, 0.046924353, -0.4404605, -0.07343073, 0.032922566, 0.03874762, 0.2670536, 0
292, 1294211777, 0.89349675, 0.046810236, -0.44060096, -0.07311052, 0.08253931, -0.051879536, 0.20992374, 0
293, 1294228444, 0.8934518, 0.046737835, -0.44075143, -0.07279968, 0.15838128, -0.019468425, 0.16109276, 0
294, 1294245111, 0.8933355, 0.04668169, -0.44102854, -0.07258387, 0.16777419, -0.008706947, 0.15242767, 0
295, 1294261778, 0.89322126, 0.04674369, -0.44130406, -0.072271846, 0.21244459, -0.0013903345, 0.1767273, 0
296, 1294278445, 0.8930612, 0.046606198, -0.44167897, -0.07205018, 0.17279518, 1.2089257E-4, 0.14024162, 0
297, 1294295112, 0.8928996, 0.046402767, -0.4420526, -0.071893334, 0.20990683, -0.043011352, 0.20396328, 0
298, 1294311779, 0.8927302, 0.046233702, -0.44245017, -0.07166096, 0.2745897, -0.0722186, 0.1848526, 0
299, 1294328446, 0.8924341, 0.04604808, -0.4430835, -0.07155665, 0.22545841, -0.094432995, 0.16341305, 0
300, 1294345113, 0.8921937, 0.04600813, -0.44362253, -0.071237355, 0.15680149, -0.112146884, 0.21990585, 0
301, 1294361780, 0.8919568, 0.046123885, -0.4441622, -0.07076545, 0.10567648, -0.049433943, 0.10311031, 0
302, 1294378447, 0.891736, 0.04624933, -0.44467154, -0.070264086, 0.12314446, 0.023617832, 0.14931679, 0
303, 1294395114, 0.8916227, 0.04637233, -0.44497502, -0.069699846, 0.29282522, -0.045945518, 0.27975845, 0
304, 1294411781, 0.8914871, 0.046302862, -0.44532305, -0.06925562, 0.3524312, -0.15387084, 0.17235565, 0
305, 1294428448, 0.8912652, 0.0463792, -0.44579667, -0.06901184, 0.16738439, -0.0133984005, 0.30934334, 0
306, 1294445115, 0.89103734, 0.046140134, -0.4462937, -0.06890246, 0.016269956, 0.04630096, 0.24146366, 0
307, 1294461782, 0.8908137, 0.04611925, -0.44680104, -0.068519324, 0.023078607, -0.020871975, 0.05195141, 0
308, 1294478449, 0.8905203, 0.046241645, -0.44742346, -0.068188004, 0.16665976, -0.06944243, 0.096159935, 0
309, 1294495116, 0.89020604, 0.04609719, -0.44809687, -0.06796679, 0.20722243, -0.0048944587, 0.1411047, 0
310, 1294511783, 0.88987845, 0.045953117, -0.44881126, -0.067640714, 0.25799626, -0.06341562, 0.23222923, 0
311, 1294528450, 0.88953394, 0.045833446, -0.44956508, -0.06724575, 0.10807969, -0.061976846, 0.17200565, 0
312, 1294545117, 0.88922197, 0.045903035, -0.45025313, -0.0667202, 0.07698502, -0.01639163, 0.12392235, 0
313, 1294561784, 0.88891345, 0.04578179, -0.45094347, -0.06624866, 0.12957671, 0.038473815, 0.1356554, 0
314, 1294578451, 0.88860494, 0.045604456, -0.4516172, -0.06592283, 0.25878376, -0.08848794, 0.15903378, 0
315, 1294595118, 0.8883885, 0.0454158, -0.45214182, -0.06537031, 0.264043, -0.11220313, 0.23235321, 0
316, 1294611785, 0.888143, 0.045250643, -0.45269695, -0.06497855, 0.2471879, -0.090854526, 0.2875023, 0
317, 1294628452, 0.8879507, 0.04527598, -0.45315343, -0.06440395, 0.16238216, -0.06713508, 0.2923956, 0
318, 1294645119, 0.88773495, 0.04539511, -0.45366493, -0.063691, 0.084191516, 0.042317204, 0.14592266, 0
319, 1294661786, 0.8875341, 0.04536313, -0.45413578, -0.06315261, 0.1394779, 0.028777936, 0.1262312, 0
320, 1294678453, 0.88731205, 0.045407746, -0.4546334, -0.06265701, 0.243069, -0.12252558, 0.18157673, 0
321, 1294695120, 0.88709253, 0.045331284, -0.45510218, -0.062416993, 0.25913242, -0.18065512, 0.24531937, 0
322, 1294711787, 0.8870014, 0.0452702, -0.45534226, -0.0620021, 0.22729166, -0.058824923, 0.18555164, 0
323, 1294728454, 0.8867796, 0.045138422, -0.4558307, -0.061683632, 0.17338258, -0.04161015, 0.15270042, 0
324, 1294745121, 0.88657624, 0.045385513, -0.45628852, -0.061036356, 0.14516899, -0.06780766, 0.20561886, 0
325, 1294761788, 0.8864515, 0.045699194, -0.45655894, -0.0605921, 0.23036228, -0.014789321, 0.21802044, 0
326, 1294778455, 0.8862949, 0.046058584, -0.4568965, -0.060063254, 0.19586799, -0.042359475, 0.27114296, 0
327, 1294795122, 0.886221, 0.046638332, -0.45707124, -0.059373744, 0.2266627, -0.08042932, 0.08957672, 0
328, 1294811789, 0.88612485, 0.04740928, -0.45726755, -0.058681656, 0.19085145, -0.075335376, 0.02767849, 0
329, 1294828456, 0.8858279, 0.048392396, -0.45792732, -0.057201445, 0.19026093, -0.0758394, 0.13421726, 0
330, 1294845123, 0.8855701, 0.049231894, -0.4584985, -0.055880673, 0.1646995, -0.029369153, 0.35785294, 0
331, 1294861790, 0.88548607, 0.049660146, -0.45867574, -0.055381954, 0.1344645, 0.01353357, 0.4248991, 0
332, 1294878457, 0.8854603, 0.050101846, -0.45873776, -0.05487749, 0.20669852, -0.09138408, 0.21711159, 0
333, 1294895124, 0.88547426, 0.050561577, -0.45872557, -0.054330014, 0.24065506, -0.09650398, 0.16724014, 0
334, 1294911791, 0.8854197, 0.051200114, -0.45883954, -0.05365645, 0.18453811, -0.10876909, 0.15995884, 0
335, 1294928458, 0.8855225, 0.051576894, -0.45865685, -0.053157076, 0.10819815, 0.011326966, 0.1962595, 0
336, 1294945125, 0.8856642, 0.0518785, -0.45840308, -0.052688573, 0.14079796, -0.050572153, 0.22042179, 0
337, 1294961792, 0.8857644, 0.05218, -0.45822313, -0.05227013, 0.0690664, -0.061241936, 0.22350311, 0
338, 1294978459, 0.8858717, 0.0525643, -0.45803747, -0.05168967, 0.07940074, 0.03475906, 0.11063862, 0
339, 1294995126, 0.8859936, 0.052958027, -0.4578347, -0.05099359, 0.107650995, -0.01850162, 0.17364693, 0
340, 1295011793, 0.8861122, 0.053006127, -0.4576634, -0.050416045, 0.10086827, -0.03131548, 0.16053104, 0
341, 1295028460, 0.8862227, 0.052952666, -0.45750847, -0.049932726, 0.19892295, -0.102689594, 0.11238003, 0
342, 1295045127, 0.8862733, 0.05288124, -0.45747814, -0.049387638, 0.21541373, -0.098808095, 0.18844128, 0
343, 1295061794, 0.88632023, 0.052899532, -0.45744425, -0.048833594, 0.19620235, -0.108650096, 0.23302078, 0
344, 1295078461, 0.8863852, 0.052888352, -0.45733497, -0.048690975, 0.47031462, -0.2265705, 0.20215988, 0
345, 1295095128, 0.88677883, 0.053453803, -0.45659605, -0.04783181, 0.3844512, -0.07255527, 0.6894493, 0
346, 1295111795, 0.88754386, 0.05343298, -0.45508292, -0.048086613, 0.05980134, 0.3390428, 0.24164104, 0
347, 1295128462, 0.8880533, 0.053382322, -0.45404142, -0.048580498, 0.40554413, -0.4763109, -0.070643425, 0
348, 1295145129, 0.8881486, 0.054467726, -0.45377558, -0.048117135, 0.009617316, -0.32516405, 0.46390057, 0
349, 1295161796, 0.88830006, 0.055373535, -0.4534615, -0.04723819, 0.06778164, -0.11040512, -0.12980366, 0
350, 1295178463, 0.88811255, 0.05689231, -0.4537101, -0.04656852, -0.11027154, 0.07578252, -0.099645615, 0
351, 1295195130, 0.8878347, 0.05843741, -0.45415244, -0.04563237, -0.032345455, -0.15391758, -0.06716728, 0
352, 1295211797, 0.8875765, 0.059544396, -0.4546055, -0.044702753, 0.20476782, -0.09533286, 0.0041685104, 0
353, 1295228464, 0.8872721, 0.060774837, -0.45513162, -0.04372421, 0.25859287, -0.20889491, 0.16990852, 0
354, 1295245131, 0.8870989, 0.061491754, -0.4554183, -0.04325094, 0.415195, -0.25681573, 0.29223728, 0
355, 1295261798, 0.8868582, 0.062344637, -0.45585218, -0.04238744, 0.20207717, -0.07166392, 0.40911865, 0
356, 1295278465, 0.8868137, 0.06276584, -0.45592675, -0.041887723, 0.061200976, 0.07345756, 0.38600254, 0
357, 1295295132, 0.88676524, 0.06320543, -0.45599914, -0.041464537, 0.019093817, -0.03254413, 0.16670513, 0
358, 1295311799, 0.88666666, 0.063640006, -0.45618036, -0.04091022, 0.07191529, -0.04976298, 0.0061330795, 0
359, 1295328466, 0.88654053, 0.06353523, -0.45645022, -0.04079873, 0.24940872, -0.06294091, -0.04027176, 0
360, 1295345133, 0.88633704, 0.06326014, -0.45689633, -0.040650282, 0.32286537, -0.050545696, 0.19327164, 0
361, 1295361800, 0.886172, 0.06285253, -0.45727214, -0.04065692, 0.3234058, -0.057324536, 0.27299023, 0
362, 1295378467, 0.8859141, 0.062296726, -0.4578235, -0.040926255, 0.21918216, 0.007509756, 0.21808052, 0
363, 1295395134, 0.8856129, 0.06205796, -0.45843497, -0.040960595, 0.15596555, 0.077158794, 0.22129631, 0
364, 1295411801, 0.88535625, 0.06191679, -0.45894536, -0.04100588, 0.18309198, 0.018486058, 0.24074173, 0
365, 1295428468, 0.88522893, 0.061835695, -0.45919293, -0.0411107, 0.28456372, -0.060609058, 0.1301527, 0
366, 1295445135, 0.8851537, 0.06171256, -0.45931953, -0.041499548, 0.19769184, -0.0665302, 0.2658968, 0
367, 1295461802, 0.885132, 0.06181961, -0.4593398, -0.041576356, 0.07081337, -0.039387703, 0.23404217, 0
368, 1295478469, 0.8850883, 0.06190076, -0.45938644, -0.04186984, 0.06227652, 0.054305825, 0.16080093, 0
369, 1295495136, 0.8850139, 0.062254976, -0.45947704, -0.041924976, 0.010747844, -0.024761828, 0.18214417, 0
370, 1295511803, 0.88497496, 0.06288875, -0.45948255, -0.041738153, 0.069613405, 0.035586014, 0.19848537, 0
371, 1295528470, 0.88499326, 0.06334229, -0.45939264, -0.041653797, 0.16093916, 0.049750492, 0.20954418, 0
372, 1295545137, 0.8849527, 0.06397784, -0.45940015, -0.041459143, 0.11491829, -0.06063834, 0.25538063, 0
373, 1295561804, 0.8848724, 0.064772904, -0.45946637, -0.04121036, 0.10016376, -0.093431324, 0.1798439, 0
374, 1295578471, 0.8848395, 0.065518044, -0.45944068, -0.04102543, 0.084632285, 0.011460766, 0.15997505, 0
375, 1295595138, 0.88483304, 0.06644273, -0.4593659, -0.04050909, 0.12530985, -0.079600565, 0.17195797, 0
376, 1295611805, 0.8848539, 0.0672933, -0.45923808, -0.040095657, 0.10840066, -0.10259776, 0.19342232, 0
377, 1295628472, 0.8849991, 0.06820408, -0.45885155, -0.03977433, 0.11930853, -0.080190584, 0.20088863, 0
378, 1295645139, 0.8851067, 0.06928312, -0.45853826, -0.039125014, 0.21587865, -0.06831397, 0.14856815, 0
379, 1295661806, 0.8850839, 0.07055715, -0.45844558, -0.03843967, 0.15209207, -0.069612995, 0.13161087, 0
380, 1295678473, 0.8850189, 0.072011285, -0.4584382, -0.037316844, 0.017139867, 9.2400255E-4, 0.16681576, 0
381, 1295695140, 0.8851139, 0.07295217, -0.4581364, -0.036940634, 0.019357117, 0.0010970575, 0.20011044, 0
382, 1295711807, 0.8852936, 0.07368459, -0.4577, -0.036587287, 0.23514144, -0.19294739, 0.14299774, 0
383, 1295728474, 0.885459, 0.07447025, -0.45729312, -0.036078393, 0.18668205, -0.1572981, 0.21216583, 0
384, 1295745141, 0.8856575, 0.07524589, -0.45682126, -0.03556986, 0.2541262, -0.09664667, 0.16405773, 0
385, 1295761808, 0.8857878, 0.076311804, -0.45642486, -0.035144955, 0.1767071, -0.08985461, 0.2551613, 0
386, 1295778475, 0.8859756, 0.07693636, -0.4559897, -0.034690976, 0.110403776, -0.08491223, 0.19699383, 0
387, 1295795142, 0.8862831, 0.07770483, -0.45529333, -0.034269173, 0.20621529, -0.14562406, 0.06436348, 0
388, 1295811809, 0.8865262, 0.07844416, -0.45472923, -0.033779904, 0.29965085, -0.13034728, 0.14301491, 0
389, 1295828476, 0.8868943, 0.079029, -0.45394474, -0.03330662, 0.25485706, -0.1514673, 0.28686142, 0
390, 1295845143, 0.88718593, 0.07977908, -0.45327982, -0.032800816, 0.29662234, -0.2423773, 0.22514153, 0
391, 1295861810, 0.88754237, 0.08095743, -0.45246673, -0.031472124, 0.11935234, -0.10760523, 0.12428284, 0
392, 1295878477, 0.887821, 0.081634246, -0.4518263, -0.03106281, 0.022479592, 0.0049318695, 0.13765526, 0
393, 1295895144, 0.88823515, 0.08203001, -0.45096833, -0.030644868, 0.18163423, -0.013111829, 0.11900616, 0
394, 1295911811, 0.8884181, 0.08235652, -0.45057955, -0.030182717, 0.23024383, -0.20091021, 0.15099525, 0
395, 1295928478, 0.88856584, 0.08315932, -0.45021188, -0.029096374, 0.06717056, -0.12915339, 0.13357258, 0
396, 1295945145, 0.8887109, 0.0833971, -0.4499001, -0.028807733, 0.106831595, -0.031458665, 0.14387321, 0
397, 1295961812, 0.8888174, 0.08381586, -0.4496462, -0.02825916, 0.1019912, -0.022224005, 0.19990063, 0
398, 1295978479, 0.88893604, 0.08406054, -0.44939262, -0.02782985, 0.19122249, -0.11915738, 0.20933819, 0
399, 1295995146, 0.88912785, 0.084155165, -0.4490349, -0.027188955, 0.23853794, -0.13806233, 0.19332409, 0
400, 1296011813, 0.88924867, 0.084505305, -0.4487645, -0.026610568, 0.28502908, -0.14638652, 0.1695013, 0
401, 1296028480, 0.8894643, 0.08464499, -0.44834307, -0.02605887, 0.28938714, -0.09027923, 0.07252598, 0
402, 1296045147, 0.889576, 0.0848402, -0.44810876, -0.025638228, 0.14682655, -0.07688622, 0.13409424, 0
403, 1296061814, 0.88967097, 0.084953554, -0.4479216, -0.025239322, 0.1201704, -0.078184724, 0.2327671, 0
404, 1296078481, 0.88982993, 0.08482773, -0.44763997, -0.025048887, 0.21415626, -0.12596168, 0.12568474, 0
405, 1296095148, 0.8899367, 0.08491182, -0.44743454, -0.024638036, 0.18531147, -0.059440475, 0.22746563, 0
406, 1296111815, 0.8900401, 0.0849069, -0.44724992, -0.024264993, 0.17646796, -0.079628, 0.21951866, 0
407, 1296128482, 0.89007956, 0.08510087, -0.44716266, -0.023739235, 0.10757679, -0.0797335, 0.20053673, 0
408, 1296145149, 0.89019716, 0.08557365, -0.4468961, -0.022628492, 0.083691746, -0.07336142, 0.2326107, 0
409, 1296161816, 0.89038885, 0.085272916, -0.4465813, -0.02244048, 0.09448027, -0.08136341, 0.21282482, 0
410, 1296178483, 0.89048976, 0.08495401, -0.44643837, -0.02248069, 0.089123555, -0.079073966, 0.0539093, 0
411, 1296195150, 0.89057344, 0.08472496, -0.44632706, -0.022249265, 0.11173546, -0.06462316, 0.056129456, 0
412, 1296211817, 0.8906999, 0.08463666, -0.4461066, -0.021929694, 0.20568556, -0.14742719, 0.053786278, 0
413, 1296228484, 0.8909669, 0.084369995, -0.44563773, -0.02164426, 0.36128813, -0.21784034, 0.14325428, 0
414, 1296245151, 0.89149547, 0.08394767, -0.4446653, -0.021523932, 0.39263538, -0.098365925, 0.27046585, 0
415, 1296261818, 0.8918337, 0.08373051, -0.4440367, -0.021338576, 0.29872283, -0.090649314, 0.26734734, 0
416, 1296278485, 0.89220935, 0.083535634, -0.4433249, -0.021204302, 0.22732966, -0.077754796, 0.2583561, 0
417, 1296295152, 0.8926036, 0.08346623, -0.4425368, -0.021344673, 0.2874685, -0.16934003, 0.20716095, 0
418, 1296311819, 0.89295864, 0.08332862, -0.44184428, -0.021373788, 0.2610591, -0.08571269, 0.13372707, 0
419, 1296328486, 0.8930547, 0.08376043, -0.44157463, -0.021238813, 0.44728965, -0.18630794, 0.13778973, 0
420, 1296345153, 0.8927083, 0.08483193, -0.44209805, -0.020657238, 0.46013406, -0.34629226, 0.18645859, 0
421, 1296361820, 0.891969, 0.08639599, -0.44335133, -0.019203816, 0.16712645, -0.22048955, 0.45891285, 0
422, 1296378487, 0.8915391, 0.087501414, -0.44403976, -0.01823224, -0.02778579, 0.042473663, 0.30093956, 0
423, 1296395154, 0.8910919, 0.0884276, -0.44475624, -0.018152116, -0.0055766483, 0.059725903, 0.17695332, 0
424, 1296411821, 0.8907576, 0.08952, -0.44523326, -0.01751064, -0.24995543, 0.114647284, 0.28740215, 0
425, 1296428488, 0.8906092, 0.090132646, -0.44541848, -0.017198766, -0.11044222, 0.079936616, 0.17314816, 0
426, 1296445155, 0.8904846, 0.09048785, -0.44560695, -0.016907325, 0.098555356, -0.07034891, 0.05057907, 0
427, 1296461822, 0.8902957, 0.09103319, -0.4458929, -0.016369453, 0.07113389, -0.07897439, 0.16626167, 0
428, 1296478489, 0.89033276, 0.09107692, -0.44581833, -0.016146157, 0.015087125, -0.043094918, 0.24277878, 0
429, 1296495156, 0.8905363, 0.090821736, -0.4454705, -0.015958473, 0.11205062, -0.08493118, 0.12566376, 0
430, 1296511823, 0.89063984, 0.090583906, -0.4453226, -0.015653923, 0.045240812, -0.10929197, 0.13285828, 0
431, 1296528490, 0.89072484, 0.09052668, -0.44518226, -0.015135599, 0.086149685, -0.09360681, 0.10656166, 0
432, 1296545157, 0.89080817, 0.09044197, -0.4450461, -0.014734898, 0.13435051, -0.07758856, 0.16105461, 0
433, 1296561824, 0.89093614, 0.0902391, -0.4448435, -0.014355911, 0.16361104, -0.035676524, 0.15627384, 0
434, 1296578491, 0.89095455, 0.09017835, -0.4448336, -0.013893744, 0.06945442, -0.16990091, 0.15694237, 0
435, 1296595158, 0.8909308, 0.090203606, -0.44489795, -0.013170026, 0.09664879, -0.10552287, 0.12747288, 0
436, 1296611825, 0.89079785, 0.09027263, -0.4451682, -0.012545509, 0.14003131, -0.07654877, 0.07554245, 0
437, 1296628492, 0.8905563, 0.09028122, -0.44566804, -0.011868022, 0.072245196, -0.06005877, 0.153018, 0
438, 1296645159, 0.89030355, 0.09051086, -0.44615212, -0.010855626, 0.062045854, -0.14734158, 0.1679802, 0
439, 1296661826, 0.89011544, 0.09054053, -0.4465322, -0.010388352, 0.13008991, -0.17935131, 0.20081139, 0
440, 1296678493, 0.8900978, 0.09033482, -0.44661888, -0.009958774, 0.15414526, -0.06598846, 0.26264477, 0
441, 1296695160, 0.8901285, 0.09002405, -0.44662803, -0.009607635, 0.15832049, -0.12555885, 0.26659012, 0
442, 1296711827, 0.89014494, 0.08976568, -0.44665328, -0.009322405, 0.09885665, -0.09348804, 0.2511034, 0
443, 1296728494, 0.89012325, 0.08939068, -0.44677368, -0.009244971, 0.08108737, -0.16918662, 0.20879936, 0
444, 1296745161, 0.89013314, 0.0889315, -0.44684914, -0.009058131, 0.049014155, -0.07578983, 0.20721722, 0
445, 1296761828, 0.8901013, 0.08851372, -0.446998, -0.008920966, 0.06793453, -0.101322055, 0.024897575, 0
446, 1296778495, 0.88993204, 0.08835879, -0.44736877, -0.008776233, 0.086637646, -0.04722214, 0.19853687, 0
447, 1296795162, 0.88973176, 0.0880826, -0.44782504, -0.008567043, 0.16438305, -0.13383542, 0.24923515, 0
448, 1296811829, 0.8894877, 0.08804087, -0.44832325, -0.008296745, 0.12889947, -0.12869379, 0.16447353, 0
449, 1296828496, 0.88921964, 0.08800064, -0.4488635, -0.008226652, 0.16211842, -0.11161516, 0.113529205, 0
450, 1296845163, 0.8888243, 0.08815125, -0.4496187, -0.008122835, 0.17101245, -0.20519194, 0.1795559, 0
451, 1296861830, 0.8885187, 0.08813075, -0.45022857, -0.007978842, 0.23611923, -0.19571067, 0.24852085, 0
452, 1296878497, 0.8881238, 0.08832859, -0.45097664, -0.0075084474, 0.19256356, -0.1335252, 0.25655556, 0
453, 1296895164, 0.88783425, 0.088487186, -0.4515204, -0.0071975496, 0.16431734, -0.08638307, 0.15349674, 0
454, 1296911831, 0.887592, 0.08857137, -0.451985, -0.0068887677, 0.13755748, -0.1179802, 0.16742134, 0
455, 1296928498, 0.8873798, 0.08857635, -0.45240486, -0.0065658707, 0.11772696, -0.13013618, 0.16616821, 0
456, 1296945165, 0.8870624, 0.088825375, -0.4529864, -0.0059721097, 0.054462954, -0.13367528, 0.17147636, 0
457, 1296961832, 0.88676226, 0.08908746, -0.45352927, -0.0054154173, -0.021546202, -0.08024752, 0.17455673, 0
458, 1296978499, 0.8865174, 0.08926739, -0.45397753, -0.0049742702, 0.11237248, -0.07260427, 0.14160919, 0
459, 1296995166, 0.88624275, 0.0890862, -0.45454934, -0.0049012676, 0.18107633, -0.12645268, 0.105597496, 0
460, 1297011833, 0.88594717, 0.08916223, -0.45511526, -0.0044653676, 0.23917362, -0.14769238, 0.16036701, 0
461, 1297028500, 0.8854597, 0.08964828, -0.45597622, -0.003473226, 0.1626477, -0.12148762, 0.13799477, 0
462, 1297045167, 0.88483554, 0.09001962, -0.45712012, -0.002441015, -0.011090266, -0.10960958, 0.26202106, 0
463, 1297061834, 0.88445115, 0.09017228, -0.4578375, -0.0014839284, 0.054331083, -0.09358968, 0.106741905, 0
464, 1297078501, 0.88409954, 0.09020686, -0.45851055, -8.1145205E-4, 0.09868276, -0.0963162, 0.08033085, 0
465, 1297095168, 0.8836329, 0.09022793, -0.45940563, -4.6993978E-4, 0.1487738, -0.15075831, 0.23783875, 0
466, 1297111835, 0.88326305, 0.09047613, -0.46006787, 1.8493086E-4, 0.15938306, -0.18983234, 0.23671341, 0
467, 1297128502, 0.8827713, 0.09076535, -0.46095312, 8.187108E-4, 0.044665042, -0.13226028, 0.15080929, 0
468, 1297145169, 0.88234466, 0.09082311, -0.46175668, 0.0014139656, 0.030961461, -0.022140076, 0.1314354, 0
469, 1297161836, 0.8819027, 0.090841115, -0.4625941, 0.0020638667, 0.19390464, -0.115278035, 0.1012907, 0
470, 1297178503, 0.8814195, 0.09100137, -0.46347848, 0.002870474, 0.22948702, -0.23197253, 0.19544125, 0
471, 1297195170, 0.88102424, 0.09115048, -0.4641934, 0.003818512, 0.14273664, -0.1501955, 0.22264767, 0
472, 1297211837, 0.88048863, 0.09150847, -0.46512854, 0.0048381817, 0.08035425, -0.11765403, 0.08781338, 0
473, 1297228504, 0.8799958, 0.09171654, -0.46601102, 0.005588321, 0.24150708, -0.14167576, 0.07123184, 0
474, 1297245171, 0.87936556, 0.09223896, -0.46707982, 0.006853221, 0.22152369, -0.1305414, 0.18337345, 0
475, 1297261838, 0.8786556, 0.09251841, -0.4683408, 0.007968694, 0.2402344, -0.12730336, 0.23317623, 0
476, 1297278505, 0.87806165, 0.09276255, -0.46938372, 0.009157174, 0.24848293, -0.21171533, 0.3790779, 0
477, 1297295172, 0.8775084, 0.09303191, -0.4703442, 0.010124188, 0.15927623, -0.171262, 0.15341377, 0
478, 1297311839, 0.87686324, 0.09352505, -0.4714215, 0.011304842, 0.121541426, -0.113062575, 0.1602068, 0
479, 1297328506, 0.87624997, 0.09412131, -0.4724135, 0.012444288, 0.24259023, -0.14010704, 0.16144657, 0
480, 1297345173, 0.8755661, 0.09514576, -0.47343376, 0.013925699, 0.18743484, -0.10743899, 0.24224281, 0
481, 1297361840, 0.87500316, 0.09579896, -0.4743037, 0.015175183, 0.15043226, -0.08595202, 0.21810341, 0
482, 1297378507, 0.87439996, 0.096615545, -0.47520506, 0.016501551, 0.02807725, -0.104778625, 0.1556387, 0
483, 1297395174, 0.8737006, 0.09732586, -0.4763003, 0.017752912, -0.02298205, -0.113609515, 0.058101654, 0
484, 1297411841, 0.87276614, 0.09803942, -0.47780874, 0.01919321, 0.038930144, -0.1310244, 0.058873177, 0
485, 1297428508, 0.8719927, 0.098662496, -0.47903213, 0.020612916, 0.17161146, -0.09190914, 0.23819447, 0
486, 1297445175, 0.87130433, 0.09921637, -0.48010692, 0.022009518, 0.35754383, -0.18446457, 0.23654366, 0
487, 1297461842, 0.87085176, 0.09956887, -0.4808061, 0.023035996, 0.22555587, -0.118101396, 0.21395588, 0
488, 1297478509, 0.8702738, 0.10029476, -0.48163334, 0.024408864, 0.21040303, -0.13509771, 0.12855053, 0
489, 1297495176, 0.8697278, 0.100628145, -0.48247775, 0.025785878, -0.05517015, 0.10593503, 0.17535114, 0
490, 1297511843, 0.8694553, 0.100749835, -0.48290792, 0.026435502, 0.050430335, -0.042656664, 0.02772808, 0
491, 1297528510, 0.8689911, 0.100998305, -0.48361883, 0.027725345, 0.15604693, -0.27209783, 0.09833717, 0
492, 1297545177, 0.86866564, 0.10110136, -0.48411947, 0.02879083, 0.19691402, -0.1620779, 0.18752003, 0
493, 1297561844, 0.8682541, 0.1013506, -0.48473442, 0.029956287, 0.30146533, -0.15487073, 0.2242794, 0
494, 1297578511, 0.8676888, 0.10191886, -0.4855442, 0.03126609, 0.6014309, -0.2154143, 0.43096066, 0
495, 1297595178, 0.8665258, 0.10342862, -0.48716092, 0.033344418, 1.0395333, -0.80601037, 1.3343105, 0
496, 1297611845, 0.8662986, 0.1053352, -0.48702943, 0.035153046, -0.510488, 0.37848863, 1.2519197, 0
497, 1297628512, 0.86703646, 0.105563715, -0.4857506, 0.03394863, 0.17277865, 0.275059, -0.88350487, 0
498, 1297645179, 0.86676824, 0.108011365, -0.48564827, 0.03455888, 0.086171396, -0.55475706, 0.19197369, 0
499, 1297661846, 0.8669322, 0.10811928, -0.48528525, 0.03519618, 0.14089765, -0.19055803, -0.093774796, 0
500, 1297678513, 0.86692184, 0.109160915, -0.48501065, 0.03601458, 0.18404011, -0.10978358, -0.38801956, 0
501, 1297695180, 0.86669505, 0.109547, -0.4852936, 0.036485534, -0.065645754, 0.13170809, -0.1138649, 0
502, 1297711847, 0.8663973, 0.10974142, -0.4857587, 0.036784466, 0.16392976, -0.087378815, -0.009720802, 0
503, 1297728514, 0.8659807, 0.10996794, -0.48641345, 0.037267577, 0.15296511, -0.16961627, 0.11022949, 0
504, 1297745181, 0.8655, 0.11022716, -0.48716992, 0.037778765, 0.12735589, -0.10057496, 0.11448765, 0
505, 1297761848, 0.8650297, 0.11045229, -0.48789918, 0.038473986, 0.14690165, -0.14148873, 0.09702206, 0
506, 1297778515, 0.8645332, 0.11116681, -0.48853353, 0.039512407, 0.20866364, -0.18114619, 0.08867741, 0
507, 1297795182, 0.86394626, 0.11175226, -0.4893502, 0.040578347, 0.08033771, 0.14274678, 0.16368103, 0
508, 1297811849, 0.86345935, 0.11212649, -0.49005628, 0.041381925, 0.1250984, 0.08118957, 0.266078, 0
509, 1297828516, 0.8630086, 0.11263127, -0.49064022, 0.042481214, 0.13424993, -0.16694753, 0.27167416, 0
510, 1297845183, 0.8626903, 0.11281893, -0.49107724, 0.043386593, 0.124138646, -0.24851774, 0.21159077, 0
511, 1297861850, 0.86239773, 0.11332399, -0.49137023, 0.044554394, 0.2033886, -0.23926342, 0.17413425, 0
512, 1297878517, 0.86225045, 0.1138894, -0.4914101, 0.045510985, 0.02878355, -0.066789135, 0.23425102, 0
513, 1297895184, 0.8623763, 0.114002064, -0.4911088, 0.046098813, 0.20089792, -0.036631875, 0.07467365, 0
514, 1297911851, 0.86247134, 0.114620276, -0.49071917, 0.046925716, 0.03508438, -0.0021609792, 0.16581345, 0
515, 1297928518, 0.86267227, 0.11473877, -0.49026895, 0.047645066, -0.16706654, 0.07217585, 0.16333103, 0
516, 1297945185, 0.8628417, 0.11441439, -0.49001288, 0.047989402, -0.16895926, 0.041954666, 0.0072259903, 0
517, 1297961852, 0.86283284, 0.11439042, -0.48997927, 0.048544087, -0.18977547, 0.0775505, -0.027176857, 0
518, 1297978519, 0.86268675, 0.11416409, -0.49024534, 0.048983775, -0.20762298, 0.15715262, 0.12491512, 0
519, 1297995186, 0.8625373, 0.11377747, -0.49056733, 0.049291126, -0.1199004, -0.07416825, 0.22221375, 0
520, 1298011853, 0.8623183, 0.113518395, -0.4909757, 0.049654804, 0.006612854, -0.23794614, 0.2710142, 0
521, 1298028520, 0.86201143, 0.11340265, -0.4914923, 0.05013392, 0.03153589, -0.1910035, 0.29674244, 0
522, 1298045187, 0.861617, 0.11339309, -0.49213886, 0.0505905, 0.11203319, -0.1453422, 0.23457527, 0
523, 1298061854, 0.8612998, 0.11340634, -0.49266124, 0.05087926, 0.034754924, -0.16862656, 0.31196022, 0
524, 1298078521, 0.86134046, 0.113144286, -0.49266246, 0.05076065, 0.08726348, -0.12590088, 0.27881908, 0
525, 1298095188, 0.8613946, 0.1128709, -0.49265078, 0.05056577, 0.09585219, -0.20225799, 0.23614407, 0
526, 1298111855, 0.86119473, 0.11299071, -0.49294245, 0.050857797, -0.13640995, -0.084434144, 0.21454239, 0
527, 1298128522, 0.8611865, 0.11239157, -0.4931199, 0.050604418, -0.03586936, 0.06538592, 0.111795425, 0
528, 1298145189, 0.8612705, 0.11181401, -0.49314114, 0.050245404, 0.008654868, -0.053133275, 0.15931225, 0
529, 1298161856, 0.86136436, 0.11107914, -0.49317333, 0.049948774, 0.123243704, -0.17820834, 0.11887264, 0
530, 1298178523, 0.86159796, 0.110132016, -0.49301362, 0.049592365, 0.106575, -0.08728181, 0.11091328, 0
531, 1298195190, 0.861707, 0.10956201, -0.49296826, 0.04941359, 0.053925075, -0.0656531, 0.10718918, 0
532, 1298211857, 0.8619619, 0.108544365, -0.49281487, 0.048737425, 0.107826225, -0.0136629, 0.095308304, 0
533, 1298228524, 0.8622671, 0.10757406, -0.49256933, 0.047967274, 0.08007083, -0.060607158, 0.22465992, 0
534, 1298245191, 0.86266166, 0.10706666, -0.49204344, 0.04740134, 0.09063897, -0.047143742, 0.12254238, 0
535, 1298261858, 0.8633367, 0.10626917, -0.49113518, 0.046312682, 0.07328275, -0.04105771, 0.12519073, 0
536, 1298278525, 0.86411417, 0.10526614, -0.49008536, 0.045211412, 0.2755718, -0.17057425, 0.14878845, 0
537, 1298295192, 0.86456245, 0.1044248, -0.48953542, 0.04454735, 0.264773, -0.28296405, 0.20952034, 0
538, 1298311859, 0.8649909, 0.10352984, -0.48902404, 0.043927677, 0.14172599, -0.11160125, 0.23928642, 0
539, 1298328526, 0.8653887, 0.10241429, -0.4886211, 0.043185808, 0.057188027, -0.059884485, 0.1228075, 0
540, 1298345193, 0.8656235, 0.10154943, -0.4884419, 0.042544905, 0.0022977132, -0.13674115, 0.120018005, 0
541, 1298361860, 0.8657845, 0.100757144, -0.4883673, 0.042006567, 0.05809102, -0.22654675, 0.15914536, 0
542, 1298378527, 0.8659781, 0.10010224, -0.48819384, 0.0415955, 0.2296001, -0.30495983, 0.17873669, 0
543, 1298395194, 0.86596215, 0.10005362, -0.4882202, 0.04173507, 0.30834818, -0.20367372, 0.14771557, 0
544, 1298411861, 0.8659706, 0.0998563, -0.4882505, 0.041680053, 0.23961304, 0.0040650303, 0.222826, 0
545, 1298428528, 0.8660823, 0.09943172, -0.4881653, 0.041370533, 0.21392156, -0.05833688, 0.2527933, 0
546, 1298445195, 0.86608994, 0.0992712, -0.48820496, 0.041124754, 0.2147061, -0.12099505, 0.21558571, 0
547, 1298461862, 0.86600214, 0.09923067, -0.48837554, 0.041046478, 0.17197087, -0.23045437, 0.22781563, 0
548, 1298478529, 0.8658079, 0.09951893, -0.4886465, 0.041221146, 0.03477996, -0.289233, 0.24500656, 0
549, 1298495196, 0.86564296, 0.09979224, -0.48886, 0.04149144, 0.004864983, -0.2544643, 0.20529652, 0
550, 1298511863, 0.8654174, 0.10022738, -0.489124, 0.042032406, 0.15230173, -0.10916976, 0.1896677, 0
551, 1298528530, 0.8652184, 0.10033815, -0.4894178, 0.04244664, 0.2544038, -0.027495334, 0.17723846, 0
552, 1298545197, 0.86519015, 0.10069564, -0.48932236, 0.043268975, 0.34351343, 0.06133537, 0.10572529, 0
553, 1298561864, 0.8652502, 0.10087418, -0.48912495, 0.043878935, 0.24413829, 0.029637594, 0.096710205, 0
554, 1298578531, 0.8652641, 0.1011143, -0.48899817, 0.044461634, 0.15025122, 0.024836201, 0.14229488, 0
555, 1298595198, 0.8655017, 0.10107287, -0.4885625, 0.044719554, 0.21415894, 0.052943736, 0.16285229, 0
556, 1298611865, 0.8656918, 0.10139727, -0.48814273, 0.044888422, 0.08673465, 0.020877842, 0.31583214, 0
557, 1298628532, 0.86603385, 0.10139886, -0.48754838, 0.044748712, 0.103149, -0.07439366, 0.3240776, 0
558, 1298645199, 0.8663109, 0.10134197, -0.48710114, 0.04438134, 0.060009204, -0.103971854, 0.314641, 0
559, 1298661866, 0.8667731, 0.10109739, -0.4863844, 0.043770473, 0.025858214, -0.17291392, 0.22724056, 0
560, 1298678533, 0.8672767, 0.10123569, -0.48548517, 0.043456614, 0.03398917, -0.11892588, 0.19002342, 0
561, 1298695200, 0.8678196, 0.10105725, -0.48459595, 0.04295771, 0.03931548, -0.08432831, 0.14533901, 0
562, 1298711867, 0.8682595, 0.10112229, -0.48382604, 0.042594202, 0.0411018, -0.15959847, 0.057193756, 0
563, 1298728534, 0.86863106, 0.101014204, -0.48322323, 0.04211464, 0.053836223, -0.1931984, 0.071559906, 0
564, 1298745201, 0.8690619, 0.1009422, -0.48248544, 0.04185558, 0.10532467, -0.22167473, 0.053624153, 0
565, 1298761868, 0.8694038, 0.100905545, -0.4818811, 0.041806813, 0.08707752, -0.20494713, 0.093605995, 0
566, 1298778535, 0.869762, 0.10069995, -0.4812795, 0.041781746, 0.07869399, -0.111497425, 0.09026432, 0
567, 1298795202, 0.87001264, 0.10061115, -0.48084933, 0.04173123, 0.09244585, -0.10929068, 0.13817978, 0
568, 1298811869, 0.8703755, 0.10036938, -0.48026118, 0.041519217, 0.14179349, -0.05642037, 0.18752098, 0
569, 1298828536, 0.87040067, 0.10071178, -0.48011953, 0.04179689, 0.15827042, -0.13609044, 0.19308472, 0
570, 1298845203, 0.8703354, 0.10096116, -0.48016655, 0.04201594, 0.11398893, -0.06939507, 0.1329813, 0
571, 1298861870, 0.8701404, 0.101535775, -0.480377, 0.042263813, 0.15209922, -0.09402698, 0.091490746, 0
572, 1298878537, 0.8700232, 0.10191468, -0.48047957, 0.04259845, 0.058578335, -0.07642344, 0.2199173, 0
573, 1298895204, 0.86991, 0.10208167, -0.48062316, 0.042888936, 0.1359911, -0.097127385, 0.103447914, 0
574, 1298911871, 0.8695891, 0.10269212, -0.48102307, 0.04345469, 0.17002317, -0.020334817, 0.078308105, 0
575, 1298928538, 0.869282, 0.10341455, -0.48137206, 0.044016242, 0.13711983, 0.009758352, 0.22899151, 0
576, 1298945205, 0.8691704, 0.10395007, -0.48141974, 0.044430956, 0.16796552, -0.0069678486, 0.28925705, 0
577, 1298961872, 0.86906964, 0.10456102, -0.48143503, 0.0448039, 0.16491188, -0.0459817, 0.25280285, 0
578, 1298978539, 0.86896044, 0.10505878, -0.48150036, 0.045053855, 0.1250461, -0.038733676, 0.17875576, 0
579, 1298995206, 0.8687986, 0.105725, -0.4816063, 0.045481734, 0.0966166, -0.0791988, 0.1264906, 0
580, 1299011873, 0.8686607, 0.10631556, -0.48168623, 0.04589265, 0.060078047, -0.044358604, 0.10697937, 0
581, 1299028540, 0.86860996, 0.10645374, -0.48171264, 0.046249513, 0.07538332, -0.033367522, 0.12408638, 0
582, 1299045207, 0.86850995, 0.10653794, -0.48183677, 0.046640262, 0.21049109, -0.08320343, 0.06317425, 0
583, 1299061874, 0.8682535, 0.107037656, -0.48213214, 0.047217883, 0.15739916, -0.07801468, 0.19335175, 0
584, 1299078541, 0.86800265, 0.10750451, -0.4824322, 0.04770018, 0.17948672, -0.08045337, 0.20443058, 0
585, 1299095208, 0.8677838, 0.108164385, -0.4826079, 0.048409306, 0.11625579, 0.04209408, 0.24368668, 0
586, 1299111875, 0.86765283, 0.10854999, -0.4827078, 0.04889723, 0.09768097, -0.06212945, 0.25709248, 0
587, 1299128542, 0.8676155, 0.10890274, -0.48264682, 0.049371675, 0.10904929, -0.08655662, 0.23151302, 0
588, 1299145209, 0.86757916, 0.10916695, -0.48260608, 0.049823873, 0.10902828, -0.063180014, 0.18460655, 0
589, 1299161876, 0.8675523, 0.10948855, -0.4825424, 0.05020129, 0.20215048, -0.066776395, 0.132164, 0
590, 1299178543, 0.8674552, 0.110027455, -0.4825474, 0.05065053, 0.1690138, -0.0999741, 0.1404295, 0
591, 1299195210, 0.8673545, 0.110406905, -0.48259172, 0.05112473, 0.18020196, -0.03339619, 0.120594025, 0
592, 1299211877, 0.8672, 0.11075999, -0.48273897, 0.051589385, 0.16405626, -0.052044608, 0.09984398, 0
593, 1299228544, 0.8670932, 0.11100109, -0.48282522, 0.052054957, 0.14829414, -0.0960172, 0.1497879, 0
594, 1299245211, 0.8669859, 0.11141847, -0.48284394, 0.052774988, 0.11058125, -0.11280509, 0.20470047, 0
595, 1299261878, 0.8668989, 0.111802906, -0.48284876, 0.05334459, 0.070133895, 0.011049307, 0.21686172, 0
596, 1299278545, 0.86682725, 0.11211627, -0.4828607, 0.053740792, 0.12406176, -0.018794088, 0.18558598, 0
597, 1299295212, 0.8667323, 0.11255609, -0.48287284, 0.05424097, 0.15992531, -0.054910373, 0.15846539, 0
598, 1299311879, 0.86672413, 0.11279293, -0.48279557, 0.054567754, 0.14945105, -0.12072443, 0.18438053, 0
599, 1299328546, 0.86672133, 0.11308325, -0.48268488, 0.054990754, 0.09448921, -0.10512368, 0.21639442, 0
600, 1299345213, 0.8667539, 0.11319867, -0.4825579, 0.055351254, 0.08658132, -7.5195346E-4, 0.17290974, 0
601, 1299361880, 0.8668429, 0.11324547, -0.4823522, 0.05565452, 0.02759625, 0.03522486, 0.20709419, 0
602, 1299378547, 0.86688906, 0.11348154, -0.48217678, 0.05597207, 0.06484111, -0.02570075, 0.18551254, 0
603, 1299395214, 0.86691236, 0.113709606, -0.48205486, 0.056198716, 0.11220484, -0.08785629, 0.14048004, 0
604, 1299411881, 0.867, 0.11406146, -0.48176444, 0.05662304, 0.16507192, -0.12305031, 0.10391331, 0
605, 1299428548, 0.867081, 0.114349954, -0.48149344, 0.057101406, 0.14836611, -0.043112576, 0.07204437, 0
606, 1299445215, 0.8670328, 0.11457023, -0.4814702, 0.057584293, 0.10505199, -0.021165, 0.10722542, 0
607, 1299461882, 0.8669417, 0.11470011, -0.48155853, 0.05795987, 0.045531824, -0.04760351, 0.18041992, 0
608, 1299478549, 0.8668444, 0.1148754, -0.48163417, 0.05843874, 0.11525624, -0.06589559, 0.18210888, 0
609, 1299495216, 0.86672395, 0.115063295, -0.48175102, 0.058888163, 0.032005712, -0.018251788, 0.25644588, 0
610, 1299511883, 0.86666554, 0.1151841, -0.48177832, 0.05928751, 0.07923177, -0.025900066, 0.21919918, 0
611, 1299528550, 0.8666289, 0.1154743, -0.48173353, 0.05962377, 0.090105675, -0.04510279, 0.18281078, 0
612, 1299545217, 0.8667408, 0.11556314, -0.48148367, 0.059842348, 0.13438402, -0.064603545, 0.19474792, 0
613, 1299561884, 0.8668296, 0.11577391, -0.48123398, 0.060154855, 0.16816802, -0.103907265, 0.17851257, 0
614, 1299578551, 0.8669207, 0.11594567, -0.48099414, 0.06042926, 0.18020599, -0.024679126, 0.11815643, 0
