PacketCounter,SampleTimeFine,Quat_W,Quat_X,Quat_Y,Quat_Z,FreeAcc_X,FreeAcc_Y,FreeAcc_Z,Status
1, 1289495016, 0.07468001, 0.4534563, -0.23906955, 0.8553643, -0.0014998139, -0.02048703, 0.0022621155, 0
2, 1289511683, 0.07461046, 0.45331433, -0.23899321, 0.85546696, 0.044703122, -0.10239732, 0.053955078, 0
3, 1289528350, 0.074600615, 0.4532048, -0.23909381, 0.8554977, 0.05221779, -0.013175214, -0.004026413, 0
4, 1289545017, 0.07464001, 0.45320034, -0.23936282, 0.8554214, -0.008635465, 0.17031981, -0.13084984, 0
5, 1289561684, 0.074631736, 0.4532259, -0.23942101, 0.8553923, 6.761686E-4, 0.16173649, -0.14573002, 0
6, 1289578351, 0.0746343, 0.45327222, -0.23950118, 0.855345, 0.060653746, 0.038472027, -0.15378475, 0
7, 1289595018, 0.074752316, 0.4532827, -0.23960148, 0.8553011, 0.063907996, -0.040308606, -0.118359566, 0
8, 1289611685, 0.07486111, 0.45329657, -0.23981868, 0.8552234, 0.05278049, -0.030323891, -0.077067375, 0
9, 1289628352, 0.07497833, 0.45346794, -0.2400141, 0.8550674, -0.008724591, 0.043049853, -0.026908875, 0
10, 1289645019, 0.0750392, 0.45334592, -0.24015753, 0.8550866, 0.09699916, 0.05581395, 0.13041401, 0
11, 1289661686, 0.07499446, 0.45325014, -0.24025455, 0.85511386, 0.12199533, 0.12934542, 0.046175957, 0
12, 1289678353, 0.07493021, 0.4533265, -0.23994617, 0.8551657, 0.0118365055, 0.099440806, -0.1481905, 0
13, 1289695020, 0.074998826, 0.45337477, -0.23940995, 0.8552843, 0.011305104, -0.07801664, -0.13911343, 0
14, 1289711687, 0.075180024, 0.45327637, -0.23929572, 0.8553525, 0.037146393, -0.16735072, -0.028477669, 0
15, 1289728354, 0.0753955, 0.4531848, -0.23969759, 0.85526955, 0.032296993, 0.017331809, -0.044683456, 0
16, 1289745021, 0.07544619, 0.45317003, -0.23965383, 0.85528517, -0.012284342, 0.17177692, -0.054047585, 0
17, 1289761688, 0.07549033, 0.45306414, -0.23927656, 0.855443, 0.013786139, 0.078722015, -0.09401798, 0
18, 1289778355, 0.07559685, 0.4530621, -0.23916192, 0.8554668, 0.034470603, -0.0085105635, -0.070347786, 0
19, 1289795022, 0.0756703, 0.4529689, -0.2391676, 0.85550797, 0.07624203, -0.031058718, -0.07137585, 0
20, 1289811689, 0.07582877, 0.452962, -0.2392616, 0.85547125, 0.11413697, 0.014645966, -0.13294792, 0
21, 1289828356, 0.07599095, 0.45311135, -0.23922697, 0.8553875, 0.06292672, 0.057086356, -0.0017051697, 0
22, 1289845023, 0.076239586, 0.45318612, -0.23918019, 0.85533893, -8.2810153E-4, 0.13311136, 0.059161186, 0
23, 1289861690, 0.0763285, 0.45333216, -0.23887628, 0.8553386, -5.353135E-4, 0.18258388, 0.056960106, 0
24, 1289878357, 0.076052755, 0.45351812, -0.23787272, 0.8555442, 0.027680194, 0.07585052, 0.016569138, 0
25, 1289895024, 0.07582857, 0.45353946, -0.23687974, 0.85582834, 0.117379494, -0.112641536, -0.016692162, 0
26, 1289911691, 0.07618219, 0.45355356, -0.23689084, 0.8557862, 0.05818041, -0.09980908, -0.13879395, 0
27, 1289928358, 0.07654652, 0.45361277, -0.23695137, 0.8557056, -0.06577971, 0.06615095, -0.1215992, 0
28, 1289945025, 0.07669285, 0.4535821, -0.23652887, 0.85582566, -0.013871256, 0.09755776, -0.08492756, 0
29, 1289961692, 0.07689555, 0.4536464, -0.23621967, 0.85585886, 0.05597882, 0.032490037, -0.04714966, 0
30, 1289978359, 0.07705275, 0.453745, -0.23607546, 0.85583216, 0.034385078, 0.014479868, -0.051247597, 0
31, 1289995026, 0.07697595, 0.45388716, -0.23597227, 0.8557921, 0.013413277, -0.010947776, -0.01573658, 0
32, 1290011693, 0.077036634, 0.4539017, -0.23602763, 0.8557637, 0.030794734, 0.037668303, -0.09418392, 0
33, 1290028360, 0.07740574, 0.45388407, -0.23605396, 0.85573256, 0.041146584, 0.01383235, -0.107105255, 0
34, 1290045027, 0.07766105, 0.45385784, -0.23598994, 0.85574096, 0.105573915, -0.011764521, -0.022363663, 0
35, 1290061694, 0.0777891, 0.45387617, -0.23619291, 0.85566354, 0.115341544, -0.017042723, -0.006875992, 0
36, 1290078361, 0.0779054, 0.45389962, -0.23651493, 0.85555154, 0.099079855, 0.021078613, -0.01807499, 0
37, 1290095028, 0.07823331, 0.45398927, -0.23692033, 0.855362, 0.075634465, 0.11800779, -0.07521248, 0
38, 1290111695, 0.07854557, 0.45410338, -0.23691683, 0.8552738, 0.040228922, 0.17909084, -0.051419258, 0
39, 1290128362, 0.078892514, 0.45421565, -0.23665705, 0.85525405, 0.08878872, 0.11702568, -0.065485, 0
40, 1290145029, 0.07902518, 0.45453653, -0.23639406, 0.8551441, 0.13513617, -0.03952832, -0.070121765, 0
41, 1290161696, 0.07932601, 0.45474437, -0.23659526, 0.85495013, 0.023626171, -0.10517095, -0.09782314, 0
42, 1290178363, 0.07976502, 0.4548723, -0.23731585, 0.8546415, -0.02976378, -0.046439204, -0.09406948, 0
43, 1290195030, 0.08155441, 0.45457172, -0.23900136, 0.85416263, -0.077059865, 0.09890247, -0.15730667, 0
44, 1290211697, 0.08173003, 0.45461667, -0.24023981, 0.8537745, -0.06014429, 0.100343905, -0.29570293, 0
45, 1290228364, 0.08259165, 0.45481724, -0.24284771, 0.8528462, 0.07232084, -0.12643532, -0.16928673, 0
46, 1290245031, 0.08367239, 0.45458657, -0.24738918, 0.85155773, 0.102546796, -0.66240746, -0.05816269, 0
47, 1290261698, 0.08764805, 0.45303875, -0.25498685, 0.8497398, -0.04616336, -0.74689513, -0.48858166, 0
48, 1290278365, 0.09147786, 0.452663, -0.26358202, 0.8469088, -0.2518007, -0.09106183, -0.42912292, 0
49, 1290295032, 0.093981944, 0.4525777, -0.2708049, 0.8443977, -0.32856065, 0.5056267, 0.077607155, 0
50, 1290311699, 0.10294316, 0.44922268, -0.27938932, 0.84234524, 0.010835811, 0.7676109, 0.27225685, 0
51, 1290328366, 0.10884041, 0.44627157, -0.28644657, 0.84080076, 0.42191908, 0.767729, 0.37911797, 0
52, 1290345033, 0.11012084, 0.44526312, -0.2912872, 0.8395044, 0.121301346, 0.45947358, 0.19116116, 0
53, 1290361700, 0.110747986, 0.44412354, -0.2943865, 0.8389445, -0.15960185, -0.052316196, -0.14480782, 0
54, 1290378367, 0.11258657, 0.44232523, -0.29756778, 0.8385274, 0.20683944, -0.44166583, -0.31429863, 0
55, 1290395034, 0.11439078, 0.44088757, -0.3021172, 0.8374127, 0.4811399, -0.5701511, -0.09468365, 0
56, 1290411701, 0.116231345, 0.4399743, -0.30793008, 0.8355201, 0.153181, -0.3260578, 0.34886456, 0
57, 1290428368, 0.11851959, 0.4386353, -0.31344816, 0.8338492, -0.29711467, 0.32718295, 0.41813564, 0
58, 1290445035, 0.120690405, 0.43729877, -0.31692377, 0.83292556, 0.007960944, 0.50873506, 0.28232384, 0
59, 1290461702, 0.122369915, 0.4363152, -0.31860116, 0.83255637, 0.32320717, 0.16195181, 0.11315632, 0
60, 1290478369, 0.123400874, 0.43545654, -0.31966978, 0.8324442, 0.32365888, -0.13363892, -0.049668312, 0
61, 1290495036, 0.12397709, 0.43471822, -0.3217864, 0.8319287, 0.12094677, -0.064439006, 0.06649685, 0
62, 1290511703, 0.12427114, 0.4336394, -0.32442066, 0.8314246, -0.06905782, 0.09178074, 0.31278706, 0
63, 1290528370, 0.124707885, 0.43190134, -0.32635948, 0.8315052, 0.034419265, 0.16020922, 0.29972744, 0
64, 1290545037, 0.125531, 0.43014845, -0.3276283, 0.8317908, 0.20175107, 0.07175948, 0.10322857, 0
65, 1290561704, 0.12632099, 0.42881605, -0.32870367, 0.83193487, 0.1878839, 0.0715862, -0.0025920868, 0
66, 1290578371, 0.12680131, 0.42744228, -0.3298701, 0.8321073, 0.09234354, 0.092269614, 0.06153965, 0
67, 1290595038, 0.12678663, 0.42595518, -0.33098102, 0.8324309, 0.019312749, 0.17420796, -0.007751465, 0
68, 1290611705, 0.1266892, 0.42437592, -0.33236927, 0.83269924, 0.15329206, 0.3112798, -0.12902832, 0
69, 1290628372, 0.12599385, 0.42320767, -0.33324546, 0.833049, 0.24286428, 0.40618032, -0.2470665, 0
70, 1290645039, 0.124988414, 0.42240638, -0.33333293, 0.8335721, 0.21324843, 0.20415847, -0.33327675, 0
71, 1290661706, 0.124499515, 0.42135167, -0.3347527, 0.83361006, 0.20024945, 0.09587379, -0.31942177, 0
72, 1290678373, 0.12404859, 0.42019302, -0.33648044, 0.83356667, 0.16147883, 0.37686744, -0.36982155, 0
73, 1290695040, 0.123117045, 0.41961923, -0.33688992, 0.8338284, 0.10586121, 0.2869863, -0.4016962, 0
74, 1290711707, 0.12259145, 0.41920012, -0.337335, 0.8339366, 0.03855263, -0.023342464, -0.3507042, 0
75, 1290728374, 0.12242305, 0.41867483, -0.33914748, 0.8334898, 0.03861354, -0.07411743, -0.3269186, 0
76, 1290745041, 0.12209049, 0.4182632, -0.3410602, 0.83296466, 0.039774604, 0.21555986, -0.2939167, 0
77, 1290761708, 0.12126278, 0.41820174, -0.3417016, 0.8328535, 0.10518883, 0.2016805, -0.27007103, 0
78, 1290778375, 0.120480984, 0.41816217, -0.34271276, 0.8325714, 0.16685845, -0.11916303, -0.115716934, 0
79, 1290795042, 0.120012596, 0.41777602, -0.3445366, 0.83207995, 0.13841727, 0.049987808, -0.10709858, 0
80, 1290811709, 0.11932013, 0.41756937, -0.3448141, 0.83216816, 0.18724884, 0.25868276, -0.095869064, 0
81, 1290828376, 0.11818824, 0.41787693, -0.3439746, 0.83252275, 0.16325498, 0.004045054, 0.042499542, 0
82, 1290845043, 0.117490046, 0.41800898, -0.3436116, 0.83270514, -0.0620962, -0.33692053, 0.20451546, 0
83, 1290861710, 0.11753934, 0.41740248, -0.3442399, 0.83274287, -0.12520477, -0.07210402, 0.19018364, 0
84, 1290878377, 0.1169019, 0.41675732, -0.3443448, 0.83311224, 0.095613144, 0.28417295, 0.23236752, 0
85, 1290895044, 0.11497205, 0.41636056, -0.34297916, 0.83414197, 0.22529966, 0.10505763, 0.24150467, 0
86, 1290911711, 0.11318497, 0.415677, -0.34094137, 0.83556134, 0.13958094, -0.0041613923, -0.030563354, 0
87, 1290928378, 0.11202634, 0.41501948, -0.3383096, 0.83711255, 0.045750532, 0.0312016, -0.18757057, 0
88, 1290945045, 0.111296214, 0.4148104, -0.33553883, 0.8384277, 0.003408908, -0.15749466, -0.10147858, 0
89, 1290961712, 0.111179605, 0.4144553, -0.33418375, 0.8391598, -0.011153576, -0.42169407, 0.021932602, 0
90, 1290978379, 0.11179943, 0.41344237, -0.33498836, 0.83925635, -0.025623525, -0.2950451, 0.04899311, 0
91, 1290995046, 0.11238702, 0.41186985, -0.3353945, 0.8397885, 0.10096686, -0.16132866, 0.06669521, 0
92, 1291011713, 0.113044694, 0.41032556, -0.3356385, 0.84035856, 0.10539502, -0.44157922, 0.11283302, 0
93, 1291028380, 0.11431062, 0.40820226, -0.33792254, 0.84030604, 0.09499873, -0.088104166, 0.12115097, 0
94, 1291045047, 0.11498947, 0.40597612, -0.3389646, 0.840872, 0.08179253, 0.36826447, 0.18029213, 0
95, 1291061714, 0.11511429, 0.40443704, -0.33747506, 0.8421946, 0.016338741, 0.10488708, 0.18406773, 0
96, 1291078381, 0.11559303, 0.40265298, -0.3368543, 0.84323186, -0.0635038, -0.069169104, 0.31794834, 0
97, 1291095048, 0.11565963, 0.40044504, -0.3375312, 0.8440031, 0.10105739, 0.10096594, 0.3296814, 0
98, 1291111715, 0.11448203, 0.39861083, -0.33764374, 0.84498626, 0.12232856, 0.11133462, 0.0989027, 0
99, 1291128382, 0.113577135, 0.3962831, -0.33697024, 0.84647083, 0.14843373, -0.08493816, -0.18745327, 0
100, 1291145049, 0.11320998, 0.39394584, -0.3368055, 0.84767556, 0.14618544, -0.47452387, -0.3304062, 0
101, 1291161716, 0.113753356, 0.39194173, -0.33702776, 0.8484432, 0.011221495, -0.36897296, -0.4700756, 0
102, 1291178383, 0.115348026, 0.38956347, -0.33839837, 0.8487778, 0.008185855, -0.022921616, -0.26088428, 0
103, 1291195050, 0.11657346, 0.38743544, -0.34101453, 0.8485371, 0.24671157, 0.15167488, 0.26347828, 0
104, 1291211717, 0.11614065, 0.38555223, -0.3418047, 0.84913605, 0.01578401, 0.17915866, 0.07276344, 0
105, 1291228384, 0.116687715, 0.3830867, -0.3410499, 0.8504794, 0.02413247, -0.09317241, -0.43671417, 0
106, 1291245051, 0.11848704, 0.38080868, -0.34257638, 0.8506402, 0.22384368, -0.0904121, -0.11550236, 0
107, 1291261718, 0.11925152, 0.37844637, -0.34254467, 0.85159975, 0.31369624, 0.33494163, 0.15149021, 0
108, 1291278385, 0.11882035, 0.3765978, -0.34017658, 0.8534269, 0.16794674, -0.30453235, -0.22486877, 0
109, 1291295052, 0.1204169, 0.37449658, -0.3388239, 0.85466504, 0.11705298, -0.63994575, -0.8085928, 0
110, 1291311719, 0.12380374, 0.37238348, -0.34019256, 0.8545606, 0.047732115, -0.4053157, -0.56659985, 0
111, 1291328386, 0.12714493, 0.3709812, -0.341147, 0.8542994, -0.15417705, -0.042910296, -0.12048435, 0
112, 1291345053, 0.13043614, 0.36900756, -0.34213176, 0.85426426, -0.12263804, -0.016231623, 0.2864523, 0
113, 1291361720, 0.13385707, 0.36548594, -0.34207106, 0.8552728, 0.11039252, 0.051089503, 0.27288246, 0
114, 1291378387, 0.13719374, 0.3626512, -0.3418021, 0.8560579, 0.34879458, -0.26322412, -0.12592697, 0
115, 1291395054, 0.14134866, 0.36052635, -0.34168854, 0.8563248, 0.17377847, -0.11233733, -0.49963284, 0
116, 1291411721, 0.1462512, 0.3586091, -0.3418892, 0.8562265, -0.02353354, -0.028609043, -0.3119402, 0
117, 1291428388, 0.15116188, 0.35678753, -0.34180143, 0.85616946, -0.07647551, 0.006449694, 0.0642786, 0
118, 1291445055, 0.15571515, 0.35465252, -0.3420406, 0.8561451, 0.0068203863, 0.04175546, 0.15428925, 0
119, 1291461722, 0.16061741, 0.3518269, -0.34188944, 0.85646534, 0.1766555, 0.16530895, -0.14544392, 0
120, 1291478389, 0.16558433, 0.3495437, -0.34158278, 0.8565768, 0.2459424, 0.0053546997, -0.4504404, 0
121, 1291495056, 0.17019671, 0.3479353, -0.34229583, 0.8560426, 0.16975424, 0.050992917, -0.22361279, 0
122, 1291511723, 0.17402609, 0.34625122, -0.34330547, 0.85555124, 0.039002843, 0.16593312, 0.109306335, 0
123, 1291528390, 0.1771674, 0.3448534, -0.34352255, 0.8553838, 0.01838584, 0.025206953, 0.031355858, 0
124, 1291545057, 0.17952994, 0.34418023, -0.34448975, 0.8547731, 0.14339295, -0.1555445, -0.010038376, 0
125, 1291561724, 0.18090108, 0.34381932, -0.3460753, 0.8539886, 0.30619282, 0.12961634, -0.033109665, 0
126, 1291578391, 0.1812728, 0.34390458, -0.3471675, 0.8534321, 0.3977218, 0.21898146, -0.111670494, 0
127, 1291595058, 0.18062103, 0.34469986, -0.34877747, 0.85259247, 0.39677605, 0.20039998, -0.1691227, 0
128, 1291611725, 0.17911021, 0.34614345, -0.349832, 0.85189396, 0.34456015, 0.23122472, -0.103533745, 0
129, 1291628392, 0.17743352, 0.34708694, -0.35055226, 0.85156494, 0.3443338, 0.19941412, 0.020043373, 0
130, 1291645059, 0.17557357, 0.34827998, -0.35102558, 0.8512683, 0.35086527, 0.25169703, -0.09143829, 0
131, 1291661726, 0.1733836, 0.35040057, -0.35120514, 0.8507728, 0.2335317, 0.19868106, -0.2750759, 0
132, 1291678393, 0.17129582, 0.35285422, -0.35146546, 0.8500739, 0.13786525, 0.025634365, -0.30943775, 0
133, 1291695060, 0.16909696, 0.35560754, -0.35227457, 0.8490312, 0.16384147, 0.03301834, -0.36491013, 0
134, 1291711727, 0.16693625, 0.35837233, -0.35299867, 0.8479948, 0.22989805, 0.2405191, -0.30108356, 0
135, 1291728394, 0.16443014, 0.36147073, -0.35309878, 0.84712726, 0.25134718, 0.3039741, -0.059716225, 0
136, 1291745061, 0.16157469, 0.3645524, -0.35251796, 0.846598, 0.12606494, 0.15300809, 0.2028799, 0
137, 1291761728, 0.1587853, 0.36698636, -0.35250485, 0.84607935, 0.08074266, -0.02817554, 0.14932537, 0
138, 1291778395, 0.15602219, 0.36937237, -0.35257313, 0.84552646, 0.15440716, -0.06824756, -0.13995457, 0
139, 1291795062, 0.15350507, 0.3720501, -0.35204852, 0.84503144, 0.2552975, -0.05442317, -0.3026924, 0
140, 1291811729, 0.15098393, 0.3751331, -0.35182205, 0.8442166, 0.19177738, 0.027439822, -0.14452267, 0
141, 1291828396, 0.14844067, 0.3783227, -0.35105357, 0.843564, 0.09289439, 0.10743793, 0.21000957, 0
142, 1291845063, 0.14569655, 0.38071778, -0.3506975, 0.8431129, 0.08966904, -0.1960151, 0.388999, 0
143, 1291861730, 0.14321382, 0.38200715, -0.35215235, 0.84234834, 0.19796303, -0.18642981, 0.086289406, 0
144, 1291878397, 0.14151622, 0.38287905, -0.35322803, 0.8417887, 0.317775, 0.12236974, -0.36254406, 0
145, 1291895064, 0.13993432, 0.38495737, -0.3530853, 0.8411648, 0.34947002, 0.019530032, -0.49955273, 0
146, 1291911731, 0.13837995, 0.3882298, -0.35320437, 0.839867, 0.12965727, -0.15741794, -0.2405529, 0
147, 1291928398, 0.13722944, 0.39072517, -0.35452837, 0.83833945, -0.075244576, -0.14480945, 0.100149155, 0
148, 1291945065, 0.13629596, 0.3921167, -0.35643092, 0.8370342, -0.0040681595, 0.1565416, 0.16824722, 0
149, 1291961732, 0.13481906, 0.39389238, -0.3568077, 0.8362788, 0.1310447, 0.24379413, 0.01578331, 0
150, 1291978399, 0.13259347, 0.39642248, -0.35650793, 0.83556676, 0.27333948, -0.069807455, -0.10358906, 0
151, 1291995066, 0.13136409, 0.39904976, -0.35791203, 0.8339084, 0.2629215, -0.10438267, -0.097761154, 0
152, 1292011733, 0.1301008, 0.401475, -0.3599756, 0.83205205, 0.16767561, -0.08491837, 0.039733887, 0
153, 1292028400, 0.12972806, 0.40280515, -0.36233836, 0.8304402, 0.23860145, -0.03717624, 0.04065609, 0
154, 1292045067, 0.12907487, 0.40388262, -0.3636827, 0.8294304, 0.30669814, 0.16230105, -0.1436224, 0
155, 1292061734, 0.12766606, 0.40609437, -0.36401597, 0.82842183, 0.38869593, 0.073507346, -0.2225132, 0
156, 1292078401, 0.12604181, 0.40878806, -0.3652779, 0.8267884, 0.084564224, -0.111493126, -0.05039692, 0
157, 1292095068, 0.12536454, 0.41067752, -0.366847, 0.825259, -0.018541852, -0.049295224, 0.034789085, 0
158, 1292111735, 0.1251115, 0.4121266, -0.36820686, 0.82396847, 0.16019064, -0.06358896, 0.076491356, 0
159, 1292128402, 0.12453681, 0.4135321, -0.36941814, 0.82280827, 0.23080073, 0.1554633, 0.040079117, 0
160, 1292145069, 0.12293154, 0.41541436, -0.3698875, 0.82189035, 0.34338084, 0.3286488, -0.039915085, 0
161, 1292161736, 0.12118468, 0.41771853, -0.36969945, 0.82106584, 0.29655427, 0.18409538, -0.022194862, 0
162, 1292178403, 0.11958385, 0.4197631, -0.36947823, 0.8203572, 0.13937415, -0.24352826, -0.0974493, 0
163, 1292195070, 0.11872092, 0.4211121, -0.37054688, 0.8193085, 0.09384938, -0.38855717, -0.14311314, 0
164, 1292211737, 0.11838672, 0.42205963, -0.3724483, 0.81800616, 0.018862147, 0.0025684154, -0.17120075, 0
165, 1292228404, 0.1181127, 0.4232937, -0.37395233, 0.8167209, 0.2008685, 0.25686777, -0.23988533, 0
166, 1292245071, 0.117510095, 0.4251978, -0.37560374, 0.8150592, 0.35001236, 0.32667252, -0.051011086, 0
167, 1292261738, 0.116466716, 0.42710665, -0.37705234, 0.81354064, 0.47523347, 0.14096521, 0.17074585, 0
168, 1292278405, 0.11281457, 0.4291506, -0.37706304, 0.81297463, 0.25939432, -0.28554267, 0.10085678, 0
169, 1292295072, 0.11620031, 0.42844123, -0.38063234, 0.81120676, 0.14778654, -0.1334038, -0.31859875, 0
170, 1292311739, 0.116688035, 0.42954132, -0.38311133, 0.80938584, 0.29875162, 0.18335871, -0.28835297, 0
171, 1292328406, 0.11550513, 0.43136948, -0.38362527, 0.8083393, 0.27666065, 0.2490767, 0.007751465, 0
172, 1292345073, 0.113634594, 0.43324277, -0.3826884, 0.8080466, 0.19952166, -0.07418417, 0.16935158, 0
173, 1292361740, 0.11267996, 0.43436125, -0.38315848, 0.8073565, 0.08254845, -0.060947094, 0.18701935, 0
174, 1292378407, 0.11178253, 0.4350653, -0.3839949, 0.8067047, 0.16997199, 0.26520106, 0.11186314, 0
175, 1292395074, 0.11060277, 0.43580678, -0.3842629, 0.80633944, 0.3258918, 0.23439983, 0.016070366, 0
176, 1292411741, 0.109351486, 0.4364281, -0.384808, 0.8059141, 0.39125565, 0.0014808851, -0.019461632, 0
177, 1292428408, 0.10831226, 0.4369338, -0.385097, 0.80564225, 0.30602604, 0.11098832, -0.1946392, 0
178, 1292445075, 0.108155906, 0.4377631, -0.38517943, 0.80517346, 0.2085011, -0.0051933234, -0.2985611, 0
179, 1292461742, 0.10790844, 0.43883216, -0.38545114, 0.80449444, 0.038590908, -0.13115536, -0.23757458, 0
180, 1292478409, 0.10758616, 0.4395454, -0.38598347, 0.80389273, 0.14165299, -0.040402956, -0.17135143, 0
181, 1292495076, 0.1076508, 0.4402075, -0.38661155, 0.8032197, 0.33470795, 0.24506453, -0.14787006, 0
182, 1292511743, 0.10685508, 0.44095436, -0.386128, 0.80314904, 0.43149796, 0.11599286, -0.030867577, 0
183, 1292528410, 0.1053304, 0.44181713, -0.3853377, 0.80325574, 0.3435274, -0.10462284, -0.18760586, 0
184, 1292545077, 0.10613914, 0.44213384, -0.3850323, 0.80312157, 0.17896436, -0.21973081, -0.31740284, 0
185, 1292561744, 0.1070196, 0.4426945, -0.3844205, 0.80298895, 0.03241114, -0.43386367, -0.30461693, 0
186, 1292578411, 0.10695002, 0.44371244, -0.38465732, 0.8023227, -0.031825524, -0.49682513, -0.01790905, 0
187, 1292595078, 0.10748185, 0.44409382, -0.3864338, 0.8011861, 0.037885584, -0.09389307, 0.4099722, 0
188, 1292611745, 0.10823533, 0.44375408, -0.3885285, 0.80025923, 0.27804115, 0.39606085, 0.67818356, 0
189, 1292628412, 0.10680854, 0.4436948, -0.388818, 0.80034345, 0.52042806, 0.64513385, 0.6143007, 0
190, 1292645079, 0.103923395, 0.4438142, -0.38679728, 0.80163515, 0.7242727, 0.63123995, 0.18665218, 0
191, 1292661746, 0.100774206, 0.44443992, -0.38232777, 0.80383164, 0.61204827, 0.26252925, -0.4458151, 0
192, 1292678413, 0.09866516, 0.4456715, -0.37743637, 0.80572075, 0.27715227, -0.44053894, -0.76789284, 0
193, 1292695080, 0.09452019, 0.44822466, -0.37271133, 0.8069999, -0.024073854, -0.63830847, -0.59641457, 0
194, 1292711747, 0.09457053, 0.44929293, -0.37164307, 0.80689275, -0.062011547, -0.16254047, -0.19221973, 0
195, 1292728414, 0.09242897, 0.45060208, -0.3694384, 0.8074232, -0.0037757205, 0.03167458, 0.020680428, 0
196, 1292745081, 0.0927176, 0.45072997, -0.36760083, 0.8081569, 0.075139806, -0.93217343, 0.113295555, 0
197, 1292761748, 0.09536008, 0.45028982, -0.37057963, 0.80673313, -0.1263486, -1.1807952, 0.40548325, 0
198, 1292778415, 0.0991481, 0.4480868, -0.37808543, 0.80401576, 5.340842E-4, 0.30704954, 0.7059183, 0
199, 1292795082, 0.10053, 0.4449378, -0.38285393, 0.80333596, 1.0674837, 1.4975663, 0.16419506, 0
200, 1292811749, 0.098927386, 0.44503254, -0.38112518, 0.8043039, 1.2404776, 0.9035719, -0.591383, 0
201, 1292828416, 0.09707229, 0.44715762, -0.3759893, 0.8057673, 0.0750937, -0.23586738, -0.7921524, 0
202, 1292845083, 0.096995234, 0.4480966, -0.37213308, 0.80704427, -0.31170878, -1.0138497, -0.6388378, 0
203, 1292861750, 0.09824863, 0.4484295, -0.3724971, 0.80653965, -0.16776036, -0.46216306, -0.1932354, 0
204, 1292878417, 0.099287994, 0.4484824, -0.37344077, 0.8059463, -0.021422235, 0.3302951, 0.2340374, 0
205, 1292895084, 0.10030935, 0.4480312, -0.37326446, 0.8061525, 0.15129007, 0.15507147, 0.1555376, 0
206, 1292911751, 0.10154136, 0.44797328, -0.37366712, 0.8058438, 0.13706969, -0.32485119, -0.19505978, 0
207, 1292928418, 0.103652515, 0.44779217, -0.37572908, 0.8047161, -0.015999561, -0.42174488, -0.20439434, 0
208, 1292945085, 0.10624386, 0.44675916, -0.37862667, 0.80359316, 0.11992968, -0.27035305, 0.0040922165, 0
209, 1292961752, 0.110005304, 0.44517416, -0.38190255, 0.8024157, 0.3797496, 0.086180195, 0.13639545, 0
210, 1292978419, 0.111196525, 0.44451475, -0.3831959, 0.8020004, 0.56717014, 0.44029504, 0.36086464, 0
211, 1292995086, 0.1127626, 0.44349682, -0.38350075, 0.8021995, 0.7219448, 0.5657328, 0.43185997, 0
212, 1293011753, 0.11181397, 0.443248, -0.3811438, 0.80359197, 0.5780399, 0.40425986, 0.27755737, 0
213, 1293028420, 0.11264959, 0.44202888, -0.37840036, 0.8054411, 0.37196833, -0.15290779, 0.0097875595, 0
214, 1293045087, 0.11270543, 0.44103914, -0.37606144, 0.8070696, 0.22701864, -0.42946646, -0.27910805, 0
215, 1293061754, 0.114235125, 0.4399368, -0.3760615, 0.8074559, 0.14245565, -0.167609, -0.2714901, 0
216, 1293078421, 0.11529203, 0.43880886, -0.37603837, 0.8079302, 0.18891653, 0.22929563, 0.060400963, 0
217, 1293095088, 0.114745036, 0.43720144, -0.37498796, 0.80936617, 0.40140682, 0.5086001, 0.2981577, 0
218, 1293111755, 0.11361508, 0.4352976, -0.37233946, 0.81177115, 0.6360978, 0.5451782, 0.12504482, 0
219, 1293128422, 0.11348239, 0.43365818, -0.36886063, 0.81425154, 0.43443492, 0.1549057, -0.24970245, 0
220, 1293145089, 0.11258152, 0.43281814, -0.3653359, 0.81640965, 0.06943695, -0.09101027, -0.41617393, 0
221, 1293161756, 0.11420329, 0.4312675, -0.36387154, 0.81765807, 0.12301972, -0.24196805, -0.3907385, 0
222, 1293178423, 0.11539923, 0.4301354, -0.3639695, 0.8180428, 0.40564764, -0.14948909, -0.23465633, 0
223, 1293195090, 0.115516305, 0.42922327, -0.36364603, 0.81864876, 0.43730494, 0.2351615, 0.032114983, 0
224, 1293211757, 0.115804814, 0.42769003, -0.36202794, 0.82012635, 0.45169163, 0.29854771, 0.12353706, 0
225, 1293228424, 0.11600769, 0.42602423, -0.35942754, 0.8221061, 0.42879057, 0.25747216, -0.0035181046, 0
226, 1293245091, 0.11604871, 0.42456925, -0.3568824, 0.8239597, 0.48754162, -0.08513245, 0.004501343, 0
227, 1293261758, 0.118935995, 0.42227983, -0.35680735, 0.8247565, 0.36125654, 0.011445624, 0.035935402, 0
228, 1293278425, 0.11589833, 0.42163768, -0.35407317, 0.8266937, 0.20762062, 0.123307966, 0.08651829, 0
229, 1293295092, 0.11560511, 0.41975597, -0.35241506, 0.82839894, 0.22341715, -0.010898128, 0.14673042, 0
230, 1293311759, 0.116045915, 0.4175547, -0.35145804, 0.8298552, 0.3037032, -0.076182686, 0.013458252, 0
231, 1293328426, 0.11695259, 0.41537252, -0.35132658, 0.83087796, 0.27896807, -0.055841696, -0.043590546, 0
232, 1293345093, 0.1195673, 0.4126229, -0.35241655, 0.83141416, 0.25650436, 0.026358642, -0.07551956, 0
233, 1293361760, 0.11978521, 0.41006684, -0.35273772, 0.83251023, 0.4023908, 0.08394594, -0.10329151, 0
234, 1293378427, 0.120543666, 0.40769807, -0.35299295, 0.83345556, 0.34307235, -0.119941495, -0.19134617, 0
235, 1293395094, 0.1240628, 0.40472257, -0.3542848, 0.83384126, 0.37695545, -0.034282614, -0.31059074, 0
236, 1293411761, 0.12534204, 0.40273535, -0.3557289, 0.83399725, 0.3357375, 0.038966887, -0.001958847, 0
237, 1293428428, 0.12523471, 0.40107632, -0.355595, 0.8348695, 0.23119102, 0.26874024, 0.03296566, 0
238, 1293445095, 0.12505056, 0.3990533, -0.3541463, 0.8364807, 0.17815559, 0.063119024, -0.19345093, 0
239, 1293461762, 0.12588586, 0.39702976, -0.35333216, 0.8376619, 0.24104473, -0.15096945, -0.3092966, 0
240, 1293478429, 0.12735601, 0.39498147, -0.35394192, 0.8381503, 0.2927615, -0.08563371, -0.1687479, 0
241, 1293495096, 0.12790602, 0.39313856, -0.35403392, 0.8388939, 0.06461603, -0.18593694, -0.23074722, 0
242, 1293511763, 0.12959811, 0.39142266, -0.35419273, 0.8393693, 0.08257929, -0.29386786, -0.43782997, 0
243, 1293528430, 0.13255674, 0.38932183, -0.35628927, 0.838997, 0.18760219, -0.064590946, -0.113051414, 0
244, 1293545097, 0.13561825, 0.38752133, -0.35784698, 0.83867836, 0.19493172, 0.19912028, 0.07653713, 0
245, 1293561764, 0.13736963, 0.38600394, -0.35744834, 0.8392629, 0.26170102, 0.054070104, -0.18555546, 0
246, 1293578431, 0.13996372, 0.3834686, -0.35823363, 0.83966154, 0.48063752, -0.061551195, -0.1200428, 0
247, 1293595098, 0.14283487, 0.38117748, -0.35913688, 0.83983535, 0.5416689, 0.18874711, 0.10105324, 0
248, 1293611765, 0.14479038, 0.3796599, -0.3578805, 0.8407238, 0.36536595, 0.19248424, -0.067668915, 0
249, 1293628432, 0.14838436, 0.37763247, -0.3572045, 0.84129757, 0.23195471, -0.2184543, -0.42614365, 0
250, 1293645099, 0.15263355, 0.37572742, -0.35740656, 0.84130454, 0.2612014, -0.16711804, -0.4864931, 0
251, 1293661766, 0.15643589, 0.37447792, -0.3583822, 0.840748, 0.13071428, -0.0360185, 0.127841, 0
252, 1293678433, 0.1591754, 0.37318754, -0.35913026, 0.8404884, -0.11306789, 0.1760569, 0.54850006, 0
253, 1293695100, 0.16081959, 0.37121785, -0.35913593, 0.841045, 0.06917933, 0.11185896, 0.3841133, 0
254, 1293711767, 0.16318396, 0.36887032, -0.3589786, 0.84168935, 0.38103655, -0.038964845, -0.021422386, 0
255, 1293728434, 0.16571555, 0.36714563, -0.3583406, 0.84222037, 0.4357342, -0.26306275, -0.2860279, 0
256, 1293745101, 0.16813777, 0.36573875, -0.3584195, 0.8423188, 0.4171643, -0.20005393, -0.25202656, 0
257, 1293761768, 0.17013033, 0.36448145, -0.35903907, 0.8421996, 0.33303437, 0.022508705, 0.031993866, 0
258, 1293778435, 0.17114368, 0.3636077, -0.35853535, 0.8425867, 0.31022492, 0.06797744, -0.009684563, 0
259, 1293795102, 0.17184746, 0.36305207, -0.35823607, 0.8428104, 0.41164634, 0.06483474, -0.1957655, 0
260, 1293811769, 0.17209032, 0.36305138, -0.35880098, 0.84252053, 0.39688385, 0.10542447, -0.21179295, 0
261, 1293828436, 0.17190753, 0.3635259, -0.35959285, 0.8420155, 0.36862594, 0.09776116, -0.18023396, 0
262, 1293845103, 0.17106338, 0.36438617, -0.36030233, 0.84151226, 0.3187313, 0.1201766, -0.16821194, 0
263, 1293861770, 0.1700514, 0.3651742, -0.36115074, 0.8410119, 0.2935666, 0.048850935, -0.062059402, 0
264, 1293878437, 0.16885942, 0.36575243, -0.36162877, 0.8407954, 0.4190712, 0.20257431, -0.06740093, 0
265, 1293895104, 0.16715536, 0.36714196, -0.361712, 0.8404945, 0.43898213, 0.16388103, -0.19704056, 0
266, 1293911771, 0.1650735, 0.36910826, -0.36138082, 0.8401872, 0.34961602, -0.01050392, -0.30070782, 0
267, 1293928438, 0.16356112, 0.37089407, -0.36169827, 0.8395596, 0.34610954, -0.031882167, -0.25446224, 0
268, 1293945105, 0.16239196, 0.3724621, -0.3619987, 0.83896273, 0.293687, 0.13518946, -0.068837166, 0
269, 1293961772, 0.16064362, 0.37424842, -0.36092165, 0.8389685, 0.29849464, 0.15087901, -0.012026787, 0
270, 1293978439, 0.1584536, 0.37640965, -0.36040196, 0.83864135, 0.3290237, -0.09603972, 0.019104004, 0
271, 1293995106, 0.15667546, 0.37809128, -0.3608226, 0.8380377, 0.41687894, -0.011561599, 1.4686584E-4, 0
272, 1294011773, 0.15473025, 0.3796254, -0.36087617, 0.8376825, 0.46168846, 0.047566462, -0.083343506, 0
273, 1294028440, 0.15297689, 0.38128823, -0.36009365, 0.8375861, 0.41168872, 0.08166244, -0.24967289, 0
274, 1294045107, 0.151733, 0.3829887, -0.35951924, 0.8372832, 0.3938901, 0.014015771, -0.050764084, 0
275, 1294061774, 0.14943418, 0.38503242, -0.35880947, 0.8370637, 0.31339043, 0.07374184, 0.13550091, 0
276, 1294078441, 0.14625658, 0.38722956, -0.3577976, 0.8370445, 0.24412353, 0.027945768, 0.120007515, 0
277, 1294095108, 0.14514272, 0.38810664, -0.35826698, 0.83663124, 0.32498983, 0.1277056, -0.05888462, 0
278, 1294111775, 0.14435087, 0.38897848, -0.35849652, 0.8362649, 0.5894598, 0.26457945, -0.18030357, 0
279, 1294128442, 0.14185245, 0.39134008, -0.35723975, 0.8361285, 0.42562538, -0.09027806, -0.18292522, 0
280, 1294145109, 0.14040564, 0.39332446, -0.35632074, 0.8358337, 0.18448676, -0.43316782, -0.22155952, 0
281, 1294161776, 0.14053647, 0.39438015, -0.35786468, 0.83465385, 0.12355036, -0.3319201, -0.13814545, 0
282, 1294178443, 0.13881657, 0.39587942, -0.3586248, 0.83390534, 0.23503585, 0.23466313, -0.054968834, 0
283, 1294195110, 0.13723867, 0.39757138, -0.3591606, 0.83313054, 0.42444757, 0.27196535, 0.0705452, 0
284, 1294211777, 0.1354451, 0.39927438, -0.3597125, 0.8323713, 0.4058624, 0.08495526, 0.122657776, 0
285, 1294228444, 0.1347151, 0.40029988, -0.35951158, 0.832084, 0.3686145, -0.08617997, -0.15453243, 0
286, 1294245111, 0.1341833, 0.4014747, -0.35965616, 0.8315411, 0.41247, -0.22605066, -0.38048267, 0
287, 1294261778, 0.13252375, 0.40357414, -0.36012402, 0.83058804, 0.3591845, -0.09596411, -0.26382637, 0
288, 1294278445, 0.13171488, 0.40553638, -0.3614146, 0.8291991, 0.20999327, -0.09177154, -0.053173065, 0
289, 1294295112, 0.1312481, 0.40690622, -0.36253834, 0.8281109, 0.15582299, -0.1168562, -0.12237072, 0
290, 1294311779, 0.13248567, 0.4079013, -0.36411065, 0.82673335, 0.22888573, -0.06709616, -0.18929672, 0
291, 1294328446, 0.13273881, 0.40957317, -0.36593503, 0.82505894, 0.26780215, 0.08802879, -0.05348587, 0
292, 1294345113, 0.13247891, 0.41127598, -0.36702847, 0.8237669, 0.30334353, 0.30850554, 0.06292057, 0
293, 1294361780, 0.13069783, 0.41332316, -0.36706114, 0.8230119, 0.50195223, 0.22013526, 0.12783718, 0
294, 1294378447, 0.12906115, 0.41477507, -0.36810753, 0.8220718, 0.51552504, -0.023955056, 0.05807209, 0
295, 1294395114, 0.12765667, 0.4159896, -0.3682339, 0.8216208, 0.3639819, -0.09381805, -0.34703445, 0
296, 1294411781, 0.1272267, 0.41787395, -0.36833447, 0.8206856, 0.15105143, -0.21364397, -0.4097395, 0
297, 1294428448, 0.12744905, 0.42013267, -0.36924574, 0.81908697, 0.008569291, -0.014540244, -0.11953831, 0
298, 1294445115, 0.12747031, 0.42224714, -0.37014976, 0.8175869, 0.18734019, 0.100843795, 0.09084225, 0
299, 1294461782, 0.12710433, 0.42391798, -0.3718879, 0.815989, 0.6227392, -0.0109619135, 0.1746006, 0
300, 1294478449, 0.12687665, 0.42492157, -0.3740416, 0.8145167, 0.70290715, 0.19072627, 0.008505821, 0
301, 1294495116, 0.12560378, 0.42641425, -0.37415913, 0.8138797, 0.5547977, 0.25888538, -0.27901363, 0
302, 1294511783, 0.12441041, 0.42875695, -0.37366906, 0.81305695, 0.34014714, -0.051279992, -0.3306551, 0
303, 1294528450, 0.124053866, 0.4312464, -0.3739696, 0.81165534, 0.20595501, -0.1350503, -0.16483402, 0
304, 1294545117, 0.12340535, 0.43336827, -0.37405637, 0.8105834, 0.20589627, -0.082799986, 0.012832642, 0
305, 1294561784, 0.123328544, 0.43454337, -0.37478247, 0.8096302, 0.3546477, -0.054448064, 0.0042095184, 0
306, 1294578451, 0.1234276, 0.4357233, -0.3756302, 0.8085874, 0.370932, 0.15568851, -0.20127678, 0
307, 1294595118, 0.12336206, 0.43754017, -0.37614566, 0.8073757, 0.29956815, 0.14766942, -0.20816612, 0
308, 1294611785, 0.122612774, 0.4399185, -0.3763649, 0.8060944, 0.21346582, 0.031446204, -0.015629768, 0
309, 1294628452, 0.122500956, 0.44180608, -0.376904, 0.80482614, 0.37838814, 0.10756978, 0.08158398, 0
310, 1294645119, 0.12168874, 0.443554, -0.37754878, 0.8036849, 0.5442991, 0.21444836, 0.15094566, 0
311, 1294661786, 0.12006708, 0.44494078, -0.37753364, 0.8031693, 0.52345055, -0.05689528, 0.029314041, 0
312, 1294678453, 0.11963984, 0.44618326, -0.37772086, 0.8024554, 0.27308795, -0.3079244, -0.26589584, 0
313, 1294695120, 0.12013844, 0.44755659, -0.3791091, 0.8009601, 0.17017506, -0.11859013, -0.19984913, 0
314, 1294711787, 0.12032211, 0.4490516, -0.380494, 0.7994376, 0.2895854, 0.10526052, 0.017308235, 0
315, 1294728454, 0.12140772, 0.44986346, -0.38204536, 0.79807615, 0.39481634, 0.05959621, 0.22269821, 0
316, 1294745121, 0.12124862, 0.45026723, -0.3837393, 0.79705936, 0.6011899, 0.02278955, 0.20062065, 0
317, 1294761788, 0.12106121, 0.45048574, -0.38575467, 0.7959907, 0.66179156, 0.19423206, 0.12215042, 0
318, 1294778455, 0.119871445, 0.45128098, -0.3852794, 0.79595053, 0.35854205, 0.17821345, -0.03643322, 0
319, 1294795122, 0.11893079, 0.45232868, -0.38458484, 0.79583275, 0.27621824, -0.17172629, -0.1516161, 0
320, 1294811789, 0.11848317, 0.45320967, -0.3851347, 0.7951323, 0.32508665, -0.075543694, -0.14637756, 0
321, 1294828456, 0.11781037, 0.45362365, -0.3858204, 0.79466355, 0.5010802, -0.036458958, -0.0066137314, 0
322, 1294845123, 0.11727527, 0.4537931, -0.38705912, 0.7940434, 0.5690841, 0.006917223, 0.1563816, 0
323, 1294861790, 0.11604312, 0.4540044, -0.38725254, 0.79400927, 0.3426285, 0.26678324, 0.18378639, 0
324, 1294878457, 0.114449024, 0.45430234, -0.38582927, 0.79476273, 0.15821697, 0.17100903, -0.0290699, 0
325, 1294895124, 0.11366711, 0.45467854, -0.38527435, 0.79492915, 0.22856502, 0.03796834, -0.13715649, 0
326, 1294911791, 0.11297453, 0.4552361, -0.38548693, 0.7946055, 0.37753084, 0.10142839, -0.11200237, 0
327, 1294928458, 0.11319646, 0.4552112, -0.38606137, 0.79430944, 0.48451048, 0.14347422, -0.011548996, 0
328, 1294945125, 0.11155291, 0.45567638, -0.38526917, 0.79465985, 0.44748616, -0.037529502, -0.07649803, 0
329, 1294961792, 0.11095583, 0.455599, -0.38576248, 0.79454863, 0.5185679, -0.14828403, -0.1358242, 0
330, 1294978459, 0.10993649, 0.45576334, -0.38614967, 0.79440767, 0.48301798, 0.15694898, -0.267251, 0
331, 1294995126, 0.10739707, 0.45684657, -0.3843033, 0.7950281, 0.30855677, 0.1264664, -0.3991747, 0
332, 1295011793, 0.10675341, 0.45778352, -0.38359264, 0.79491884, 0.30682606, -0.14147373, -0.2568817, 0
333, 1295028460, 0.1063975, 0.45877153, -0.38304043, 0.7946632, 0.2814016, -0.122676596, -0.135746, 0
334, 1295045127, 0.10574169, 0.4596918, -0.3823495, 0.79455173, 0.40005803, -0.21268883, 0.0055093765, 0
335, 1295061794, 0.10488184, 0.46044806, -0.38206613, 0.794364, 0.454522, -0.21968499, 0.11794186, 0
336, 1295078461, 0.105463944, 0.46014905, -0.38239408, 0.79430234, 0.4829068, -0.32320988, 0.4635868, 0
337, 1295095128, 0.10607225, 0.46050215, -0.38317782, 0.79363865, -0.24812111, -0.4511325, 1.060564, 0
338, 1295111795, 0.107948996, 0.4583319, -0.3852143, 0.79365605, 0.2043484, 0.16196978, -0.11147404, 0
339, 1295128462, 0.10716002, 0.45785245, -0.38298407, 0.7951179, 0.8281434, -0.22799076, -0.6352396, 0
340, 1295145129, 0.10775543, 0.45782885, -0.38450804, 0.794315, 0.4356604, -0.6633403, -0.290102, 0
341, 1295161796, 0.11067693, 0.4558821, -0.39038357, 0.792164, 0.5512391, 1.5325824, 0.05798626, 0
342, 1295178463, 0.108505, 0.45634407, -0.38560098, 0.79453754, 0.54042125, 1.5934241, -0.28583145, 0
343, 1295195130, 0.104847446, 0.4577235, -0.37872624, 0.79753596, 0.47690177, -0.5660752, -0.9190998, 0
344, 1295211797, 0.1048815, 0.45836753, -0.3782914, 0.79736817, 0.10562635, -1.2302697, -0.5530758, 0
345, 1295228464, 0.10758826, 0.45822328, -0.38097134, 0.79581296, -0.43476814, -0.4064653, -0.09115982, 0
346, 1295245131, 0.1088392, 0.4573647, -0.3831631, 0.79508406, -0.10434501, 0.074256495, 0.013414383, 0
347, 1295261798, 0.11110332, 0.45594937, -0.3877188, 0.7933735, 0.64898723, 0.4407083, 0.060138702, 0
348, 1295278465, 0.11169432, 0.45575723, -0.39084303, 0.7918666, 0.73947906, 0.89030784, 0.21116543, 0
349, 1295295132, 0.11106828, 0.45586726, -0.38976872, 0.7924204, 0.45326436, 0.26179475, -0.118639946, 0
350, 1295311799, 0.11070779, 0.45657867, -0.3880997, 0.7928805, 0.2823882, -0.59334826, -0.61116505, 0
351, 1295328466, 0.111936145, 0.45766616, -0.38737977, 0.79243284, 0.04059157, -0.67910326, -0.49435997, 0
352, 1295345133, 0.11389854, 0.4585345, -0.387812, 0.79143935, 0.01135728, -0.3028462, -0.03400421, 0
353, 1295361800, 0.11537911, 0.45918545, -0.38881654, 0.7903536, 0.15494092, 0.01029062, 0.33859348, 0
354, 1295378467, 0.116768226, 0.45886102, -0.38993058, 0.78978914, 0.4296239, -0.099048175, 0.25841522, 0
355, 1295395134, 0.11854926, 0.45805898, -0.39179075, 0.78906834, 0.6085628, -0.2052118, -0.0062761307, 0
356, 1295411801, 0.12103624, 0.45722738, -0.39356643, 0.78828925, 0.50568765, -0.06964815, -0.05938244, 0
357, 1295428468, 0.12369489, 0.45613715, -0.39486837, 0.78785676, 0.5238132, -0.03126387, 0.08886337, 0
358, 1295445135, 0.12498638, 0.455411, -0.3958237, 0.7875937, 0.7440472, 0.05351814, 0.2608385, 0
359, 1295461802, 0.12570366, 0.45493117, -0.39568785, 0.78782487, 0.76519024, 0.24829865, 0.31882286, 0
360, 1295478469, 0.12533627, 0.4543551, -0.39378533, 0.78916806, 0.69942653, 0.18289517, 0.30003548, 0
361, 1295495136, 0.122820735, 0.45400876, -0.39065552, 0.7913155, 0.7555378, -0.037008215, 0.17591286, 0
362, 1295511803, 0.121738344, 0.45275477, -0.3881332, 0.79343957, 0.7443509, 0.12859969, 0.042435646, 0
363, 1295528470, 0.12151768, 0.45118818, -0.3854005, 0.79569465, 0.6373794, 0.051729392, 0.028759956, 0
364, 1295545137, 0.121609226, 0.4497556, -0.38386983, 0.79723024, 0.46229914, -0.07850569, 0.053120613, 0
365, 1295561804, 0.12232343, 0.44747132, -0.38241896, 0.7991013, 0.5003734, 0.18429367, 0.09087753, 0
366, 1295578471, 0.121573955, 0.44496998, -0.37830988, 0.8025609, 0.6369765, 0.17848618, 0.10656166, 0
367, 1295595138, 0.12041728, 0.4430179, -0.37447432, 0.80560815, 0.5111371, -0.0057755467, -0.09849644, 0
368, 1295611805, 0.12108397, 0.44102404, -0.37260655, 0.8074661, 0.3472209, 0.15208061, -0.2325325, 0
369, 1295628472, 0.12163579, 0.43896592, -0.37009752, 0.80965555, 0.41169113, 0.28372812, -0.06512737, 0
370, 1295645139, 0.1209012, 0.43729672, -0.3663308, 0.8123774, 0.51150054, -0.051365178, 0.04800129, 0
371, 1295661806, 0.12077473, 0.43518722, -0.36407754, 0.8145391, 0.50992477, -0.18369918, 0.01525116, 0
372, 1295678473, 0.120362915, 0.4327596, -0.36228535, 0.8166897, 0.53912777, 0.20077524, -0.0753355, 0
373, 1295695140, 0.11952306, 0.4305541, -0.35976368, 0.81908983, 0.45763794, 0.32939866, -0.099757195, 0
374, 1295711807, 0.119543254, 0.42817995, -0.35639855, 0.821798, 0.31728423, 0.05234531, -0.20987225, 0
375, 1295728474, 0.11969466, 0.42576537, -0.35373303, 0.8241788, 0.2130775, -0.12419324, -0.16862679, 0
376, 1295745141, 0.12146386, 0.42309204, -0.3532068, 0.82552123, 0.32945338, -0.054432668, -0.06381607, 0
377, 1295761808, 0.12110851, 0.42100784, -0.3527304, 0.82684153, 0.38781995, 0.05470843, -0.100180626, 0
378, 1295778475, 0.121896684, 0.41837955, -0.35310748, 0.82789814, 0.32831997, 0.19791542, -0.03211212, 0
379, 1295795142, 0.12314739, 0.41548353, -0.3522789, 0.8295229, 0.46688133, 0.19239174, -0.15320969, 0
380, 1295811809, 0.12380514, 0.41336486, -0.3504088, 0.831274, 0.24134596, -0.10022823, -0.3314247, 0
381, 1295828476, 0.12467047, 0.41142052, -0.34951112, 0.8324863, 0.19131148, -0.2644258, -0.34387302, 0
382, 1295845143, 0.12662937, 0.40896654, -0.35164922, 0.83249927, 0.27864176, 0.15452194, 0.033828735, 0
383, 1295861810, 0.12684087, 0.40685046, -0.35246632, 0.8331579, 0.31690574, 0.6005569, 0.18047047, 0
384, 1295878477, 0.12583363, 0.40495026, -0.35114008, 0.83479494, 0.54007524, 0.12480977, -0.080322266, 0
385, 1295895144, 0.1256514, 0.4028449, -0.35063243, 0.8360533, 0.42617518, -0.35142946, -0.45848465, 0
386, 1295911811, 0.12647016, 0.40097567, -0.34990513, 0.8371326, 0.29082677, -0.1562818, -0.73239326, 0
387, 1295928478, 0.12817003, 0.39958787, -0.3499908, 0.83750176, 0.3374882, -0.08478615, -0.29364014, 0
388, 1295945145, 0.12954956, 0.39819783, -0.35090542, 0.8375687, 0.26920673, -0.027818339, 0.10906601, 0
389, 1295961812, 0.13055192, 0.39644828, -0.3511788, 0.83812803, 0.4015019, 0.073575966, -0.067894936, 0
390, 1295978479, 0.13171437, 0.39441544, -0.35200226, 0.83855987, 0.48528782, 0.039923523, -0.07252121, 0
391, 1295995146, 0.1332664, 0.39290333, -0.351773, 0.83912057, 0.4850572, 0.19062616, -0.24975014, 0
392, 1296011813, 0.1345556, 0.3920865, -0.35112697, 0.8395672, 0.27407065, -0.083436765, -0.16867352, 0
393, 1296028480, 0.13642675, 0.39098525, -0.35120666, 0.8397454, 0.14640479, -0.110035375, -0.15257645, 0
394, 1296045147, 0.13801478, 0.3898967, -0.3511819, 0.8400025, 0.30539793, -0.13285169, -0.1375475, 0
395, 1296061814, 0.13947158, 0.38834295, -0.3519265, 0.8401697, 0.3763332, -0.1472949, 0.027144432, 0
396, 1296078481, 0.14111277, 0.3864693, -0.35230708, 0.8406, 0.4143523, -0.058488537, -0.032992363, 0
397, 1296095148, 0.14310405, 0.3846464, -0.3517195, 0.8413452, 0.4580285, -0.054907747, -0.22840595, 0
398, 1296111815, 0.14581439, 0.38297936, -0.3523266, 0.8413865, 0.45179465, -0.08619587, -0.039988518, 0
399, 1296128482, 0.14787237, 0.38161364, -0.35209668, 0.84174407, 0.36197415, 0.049492892, 0.09256077, 0
400, 1296145149, 0.15052798, 0.37975442, -0.35115668, 0.8425063, 0.31939483, -0.08082212, -0.062042236, 0
401, 1296161816, 0.15351199, 0.37739187, -0.35060662, 0.84325826, 0.46192715, -0.096332744, -0.2764225, 0
402, 1296178483, 0.15633559, 0.3756388, -0.35032812, 0.84363794, 0.5215268, 0.07535524, -0.2290926, 0
403, 1296195150, 0.16005163, 0.3741519, -0.34962532, 0.84389347, 0.33996218, -0.058042552, -0.13067722, 0
404, 1296211817, 0.16361485, 0.37237415, -0.34911937, 0.8442059, 0.3049804, -0.20728144, -0.11305046, 0
405, 1296228484, 0.16826206, 0.3701074, -0.3497304, 0.8440363, 0.34197208, -0.056611028, -0.14068317, 0
406, 1296245151, 0.17255291, 0.36808842, -0.34980476, 0.84402204, 0.43278885, 0.08763809, -0.043255806, 0
407, 1296261818, 0.1764027, 0.36618698, -0.35001582, 0.8439661, 0.3743571, 0.013963246, 0.21943092, 0
408, 1296278485, 0.17972037, 0.36391437, -0.34991503, 0.8442907, 0.33381224, 0.100981474, 0.26478004, 0
409, 1296295152, 0.18260062, 0.36201417, -0.34959054, 0.84462386, 0.3285702, 0.06594957, -0.003768921, 0
410, 1296311819, 0.18522145, 0.36051142, -0.3492242, 0.8448475, 0.50935966, -0.095270835, -0.21051788, 0
411, 1296328486, 0.18727714, 0.35987777, -0.34934476, 0.8446146, 0.52185047, -0.12730096, -0.12909317, 0
412, 1296345153, 0.18833978, 0.3596763, -0.349905, 0.8442321, 0.38633, -0.059803016, 0.035787582, 0
413, 1296361820, 0.18881264, 0.35926256, -0.3508197, 0.843923, 0.4898344, 0.2515203, 0.10499573, 0
414, 1296378487, 0.1885033, 0.35953408, -0.3513467, 0.84365726, 0.5512323, 0.21834187, 0.03567505, 0
415, 1296395154, 0.1881485, 0.3598298, -0.35215774, 0.8432721, 0.6390112, 0.07274335, -0.07994175, 0
416, 1296411821, 0.18763621, 0.36004186, -0.35307676, 0.84291124, 0.7687336, 0.053761795, -0.10270786, 0
417, 1296428488, 0.18693393, 0.36020133, -0.35391355, 0.84264827, 0.7614067, 0.12752621, -0.17838669, 0
418, 1296445155, 0.1860063, 0.36091396, -0.35433167, 0.84237283, 0.62529606, 0.1646183, -0.29292297, 0
419, 1296461822, 0.18494605, 0.36239016, -0.3549464, 0.8417134, 0.3978392, 0.03807085, -0.3153782, 0
420, 1296478489, 0.18378969, 0.36386934, -0.3562591, 0.8407734, 0.3025349, 0.046891287, -0.22140121, 0
421, 1296495156, 0.18248287, 0.36499104, -0.35755923, 0.8400195, 0.41149038, 0.18832386, -0.18645763, 0
422, 1296511823, 0.18101479, 0.36644435, -0.35831884, 0.83938056, 0.5073117, 0.27469882, -0.147892, 0
423, 1296528490, 0.17915027, 0.36832052, -0.3588114, 0.8387489, 0.43929064, 0.22199167, -0.16946602, 0
424, 1296545157, 0.17710531, 0.37041283, -0.35876745, 0.83828014, 0.46325743, 0.0638999, -0.31986237, 0
425, 1296561824, 0.17515141, 0.37296283, -0.3587418, 0.8375709, 0.46279302, -0.030197773, -0.28733063, 0
426, 1296578491, 0.173289, 0.37551177, -0.35870045, 0.83683676, 0.3813971, 0.01055214, -0.050840378, 0
427, 1296595158, 0.17112525, 0.37791145, -0.35905927, 0.8360475, 0.4023151, 0.07675228, 0.056599617, 0
428, 1296611825, 0.1685491, 0.38050234, -0.35940257, 0.8352477, 0.45643246, 0.050036002, -0.0689373, 0
429, 1296628492, 0.1659627, 0.38289785, -0.35894743, 0.8348665, 0.4636792, -0.07136707, -0.22588253, 0
430, 1296645159, 0.16438511, 0.38490534, -0.35771662, 0.8347838, 0.5375317, -0.1280532, -0.14408016, 0
431, 1296661826, 0.16220686, 0.38761958, -0.35726202, 0.8341485, 0.4019624, -0.078170024, 0.0064344406, 0
432, 1296678493, 0.16035503, 0.3900227, -0.35753113, 0.83327055, 0.24454407, 0.07105583, 0.006409645, 0
433, 1296695160, 0.15965407, 0.39168644, -0.35735145, 0.8327016, 0.3548365, -0.071133666, -0.13619804, 0
434, 1296711827, 0.15844159, 0.3940463, -0.35740831, 0.831795, 0.40137547, -0.1940335, -0.14312935, 0
435, 1296728494, 0.1580437, 0.39636293, -0.358144, 0.8304524, 0.25719914, 0.112772174, 0.026721954, 0
436, 1296745161, 0.15655491, 0.39834952, -0.3580048, 0.8298437, 0.42362517, 0.22307716, 0.1564436, 0
437, 1296761828, 0.15535341, 0.4000263, -0.35841733, 0.8290846, 0.6647934, -0.071880035, 0.14252567, 0
438, 1296778495, 0.15320954, 0.40180805, -0.35908744, 0.8283317, 0.6427572, -0.20221283, -0.19249058, 0
439, 1296795162, 0.15232433, 0.4034031, -0.36011562, 0.8272725, 0.52036375, -0.10894334, -0.38864517, 0
440, 1296811829, 0.15217437, 0.40536755, -0.36149737, 0.82573575, 0.3455453, -0.042371463, -0.14310646, 0
441, 1296828496, 0.15216796, 0.40731904, -0.36267954, 0.82425684, 0.20472018, 0.033294603, -0.0022039413, 0
442, 1296845163, 0.15186115, 0.4091377, -0.36417016, 0.8227542, 0.3752859, -0.009110388, -0.046697617, 0
443, 1296861830, 0.15138689, 0.4107749, -0.3665744, 0.8209563, 0.5274612, 0.099316195, 0.1283474, 0
444, 1296878497, 0.15009865, 0.4120951, -0.36826774, 0.8197724, 0.51471066, 0.23791021, 0.21681595, 0
445, 1296895164, 0.14884308, 0.4133128, -0.36920765, 0.81896514, 0.52779466, 0.008502936, 0.06831932, 0
446, 1296911831, 0.14769591, 0.41477862, -0.37005708, 0.8180479, 0.3599314, -0.1350225, -0.19159508, 0
447, 1296928498, 0.14695245, 0.41647694, -0.3710182, 0.81688267, 0.30203384, -0.005719529, -0.41291046, 0
448, 1296945165, 0.14647572, 0.4186956, -0.37202024, 0.81537706, 0.41649362, 0.24782991, -0.23087502, 0
449, 1296961832, 0.14565207, 0.42119294, -0.3723771, 0.8140745, 0.5416567, 0.31454578, 0.044239998, 0
450, 1296978499, 0.14349484, 0.42344716, -0.37227762, 0.8133334, 0.5285974, 0.03397235, 0.114953995, 0
451, 1296995166, 0.14226368, 0.42482966, -0.3731871, 0.8124115, 0.5499968, -0.21978655, -0.094112396, 0
452, 1297011833, 0.14108579, 0.42664555, -0.37365684, 0.8114487, 0.44756836, -0.0070600756, -0.37162304, 0
453, 1297028500, 0.13953665, 0.42927593, -0.37408724, 0.81012994, 0.2121738, 0.015010236, -0.2813902, 0
454, 1297045167, 0.13841136, 0.43164864, -0.37467772, 0.8087883, 0.27059963, 0.033088636, -0.07709217, 0
455, 1297061834, 0.13821529, 0.4335238, -0.374806, 0.8077588, 0.36605737, -0.0126054045, -0.027057648, 0
456, 1297078501, 0.13768977, 0.43554416, -0.37504524, 0.80665, 0.43834275, -0.048340153, -0.104278564, 0
457, 1297095168, 0.13777289, 0.43758154, -0.37602147, 0.80507714, 0.41191673, 0.17665648, -0.10934353, 0
458, 1297111835, 0.1369052, 0.44011456, -0.3764627, 0.8036369, 0.55979013, 0.32224083, 0.12298107, 0
459, 1297128502, 0.13562945, 0.4425011, -0.37724373, 0.8021751, 0.67867845, 0.010746727, 0.24260902, 0
460, 1297145169, 0.13449071, 0.44375676, -0.37713733, 0.8017231, 0.5445531, -0.0666332, -0.082977295, 0
461, 1297161836, 0.13386285, 0.44486573, -0.37560406, 0.80193335, 0.39250782, -0.110897966, -0.51092815, 0
462, 1297178503, 0.13348992, 0.44724268, -0.3748341, 0.8010332, 0.24282344, -0.056354042, -0.3792963, 0
463, 1297195170, 0.13315786, 0.4499469, -0.37524164, 0.7993816, 0.22415471, 0.16712974, 0.05486107, 0
464, 1297211837, 0.13274476, 0.4520973, -0.37582806, 0.7979603, 0.47188866, 0.03170939, 0.21608067, 0
465, 1297228504, 0.1322818, 0.45337912, -0.3762293, 0.7971205, 0.5133344, -0.17155536, 0.016200066, 0
466, 1297245171, 0.13249236, 0.45417273, -0.37709528, 0.7962239, 0.4838403, -0.28984344, -0.31516838, 0
467, 1297261838, 0.1328396, 0.4556998, -0.37827596, 0.79473233, 0.2256265, 0.08448337, -0.259943, 0
468, 1297278505, 0.1329115, 0.45761696, -0.37865067, 0.79343903, 0.2112431, 0.21212329, 0.12660408, 0
469, 1297295172, 0.1326865, 0.45909163, -0.3791596, 0.7923811, 0.47318745, -0.016798284, 0.31187057, 0
470, 1297311839, 0.13242687, 0.46010327, -0.38045198, 0.7912175, 0.637162, -0.109076835, 0.2133112, 0
471, 1297328506, 0.13211714, 0.46085265, -0.38103712, 0.7905512, 0.6538095, 0.0825199, -0.04117298, 0
472, 1297345173, 0.13158165, 0.46184102, -0.38122663, 0.7899723, 0.6264784, 0.114283614, -0.040208817, 0
473, 1297361840, 0.13095856, 0.46292865, -0.3804099, 0.78983307, 0.42938668, 0.01599565, 0.042894363, 0
474, 1297378507, 0.13066159, 0.4634478, -0.38002282, 0.78976387, 0.60540944, -0.16309534, -0.027902603, 0
475, 1297395174, 0.130051, 0.46407396, -0.38065773, 0.78919107, 0.6406829, 0.108959354, -0.100868225, 0
476, 1297411841, 0.1287087, 0.46491182, -0.378998, 0.7897168, 0.4478418, 0.12087645, -0.20072079, 0
477, 1297428508, 0.12812826, 0.46596795, -0.3769374, 0.79017496, 0.25566015, -0.21841066, -0.3199072, 0
478, 1297445175, 0.12853329, 0.46726194, -0.37647027, 0.78956735, 0.071062595, -0.045279197, -0.075834274, 0
479, 1297461842, 0.12873074, 0.4679714, -0.37686107, 0.78892833, 0.31614915, 0.29000255, 0.32263184, 0
480, 1297478509, 0.12792352, 0.46814364, -0.37739173, 0.78870356, 0.754284, 0.20058572, 0.27388954, 0
481, 1297495176, 0.126595, 0.46793446, -0.37712783, 0.78916824, 0.82571876, 0.13339096, -0.22660446, 0
482, 1297511843, 0.12500598, 0.4685493, -0.37574825, 0.78971463, 0.49632952, -0.010747565, -0.53470325, 0
483, 1297528510, 0.12439921, 0.46950412, -0.3742941, 0.78993386, 0.1501257, -0.19754845, -0.4565487, 0
484, 1297545177, 0.12472735, 0.4704063, -0.3739849, 0.78949165, 0.16968665, -0.04138281, -0.053077698, 0
485, 1297561844, 0.1245607, 0.47124842, -0.3738702, 0.7890699, 0.38254687, 0.14015909, 0.4142971, 0
486, 1297578511, 0.123997085, 0.47169137, -0.3735568, 0.7890425, 0.7681572, -0.4333652, 0.98773956, 0
487, 1297595178, 0.124903694, 0.47182453, -0.3747553, 0.78825104, 0.12672749, -1.0547327, 2.8662796, 0
488, 1297611845, 0.12716378, 0.46951857, -0.3809941, 0.7862734, 0.06800091, 1.5668498, 1.3742094, 0
489, 1297628512, 0.121406816, 0.46691266, -0.37620246, 0.7910281, 1.3739142, 1.8327216, -0.83420086, 0
490, 1297645179, 0.11445157, 0.46779275, -0.36450928, 0.7969973, 1.0951896, -1.2534739, -1.8834229, 0
491, 1297661846, 0.114288986, 0.46869797, -0.3622892, 0.7975008, 0.019224182, -1.1780794, -1.5241938, 0
492, 1297678513, 0.11391817, 0.46993798, -0.359819, 0.7979422, -0.7355201, 0.3213359, -0.19429588, 0
493, 1297695180, 0.11106965, 0.46977752, -0.35469761, 0.8007264, 0.20904483, -0.22105554, -0.12460041, 0
494, 1297711847, 0.10935425, 0.46915668, -0.35247567, 0.80230623, 0.8956119, -0.46610615, -0.2743578, 0
495, 1297728514, 0.108489305, 0.4684365, -0.3526759, 0.80275637, 0.5597263, 0.1754458, -0.12285614, 0
496, 1297745181, 0.107407674, 0.4687756, -0.3510291, 0.80342525, 0.09940171, 0.4239882, -0.2846794, 0
497, 1297761848, 0.10764244, 0.46859533, -0.34933057, 0.804239, 0.32427475, -0.4209537, -0.47834396, 0
498, 1297778515, 0.10964275, 0.4679483, -0.3491439, 0.8044266, 0.5476952, -0.6853828, -0.5166054, 0
499, 1297795182, 0.11125299, 0.4676187, -0.35016465, 0.80395335, 0.44480172, -0.41059908, -0.29211426, 0
500, 1297811849, 0.11213717, 0.4673528, -0.35186976, 0.8032402, 0.46125185, 0.045011792, -0.010540009, 0
501, 1297828516, 0.112488806, 0.46720707, -0.35248375, 0.8030066, 0.55712956, 0.4668015, 0.16520977, 0
502, 1297845183, 0.11249696, 0.46683118, -0.35229516, 0.8033068, 0.5547148, 0.57396996, 0.27239323, 0
503, 1297861850, 0.111746855, 0.46649554, -0.35111725, 0.804122, 0.5756862, 0.6407197, 0.26574898, 0
504, 1297878517, 0.11044161, 0.46618423, -0.34913105, 0.80534655, 0.62756056, 0.47654063, 0.04942894, 0
505, 1297895184, 0.10889198, 0.46612963, -0.34700146, 0.80650884, 0.5362908, 0.11331445, -0.21361828, 0
506, 1297911851, 0.10751264, 0.4662361, -0.34557536, 0.8072443, 0.43194613, -0.22678638, -0.35200882, 0
507, 1297928518, 0.106459685, 0.46637958, -0.3447304, 0.807662, 0.3817154, -0.32622123, -0.4263487, 0
508, 1297945185, 0.10607282, 0.46639618, -0.34452266, 0.807792, 0.45865175, -0.3450421, -0.50298977, 0
509, 1297961852, 0.10624273, 0.46671057, -0.34447315, 0.80760926, 0.57841647, -0.16750477, -0.45683002, 0
510, 1297978519, 0.106654584, 0.46712747, -0.34460205, 0.8072588, 0.64552027, -0.16036479, -0.23159981, 0
511, 1297995186, 0.10764654, 0.46741253, -0.3457017, 0.8064917, 0.645126, -0.06441828, -0.024299622, 0
512, 1298011853, 0.10860654, 0.467591, -0.3468976, 0.8057457, 0.62140524, 0.2639321, 0.1323967, 0
513, 1298028520, 0.10921432, 0.46780208, -0.34702098, 0.8054877, 0.6648976, 0.45055008, 0.2665491, 0
514, 1298045187, 0.10920142, 0.4681414, -0.34606105, 0.80570537, 0.665956, 0.41049302, 0.3998804, 0
515, 1298061854, 0.10834103, 0.4684991, -0.3441826, 0.8064178, 0.605188, 0.39757815, 0.272707, 0
516, 1298078521, 0.10700996, 0.46910486, -0.3418195, 0.80724806, 0.44842035, 0.2609747, -0.0791111, 0
517, 1298095188, 0.10554166, 0.46980706, -0.33819252, 0.80855966, 0.3575766, 0.07586474, -0.23480797, 0
518, 1298111855, 0.10476181, 0.47019607, -0.33543083, 0.8095848, 0.37057114, -0.425403, -0.35124397, 0
519, 1298128522, 0.104981385, 0.47080234, -0.33450872, 0.80958533, 0.26482886, -0.22282034, -0.41427135, 0
520, 1298145189, 0.10520129, 0.47156394, -0.33398682, 0.8093289, 0.27939865, -0.039183944, -0.4459715, 0
521, 1298161856, 0.10572691, 0.4723592, -0.33426407, 0.8086821, 0.40937772, 0.15751508, -0.34644508, 0
522, 1298178523, 0.10627309, 0.47326526, -0.33468655, 0.8079057, 0.49788773, 0.27871737, -0.20603848, 0
523, 1298195190, 0.10668498, 0.4745296, -0.33464804, 0.8071254, 0.45451745, 0.16875379, -0.12025261, 0
524, 1298211857, 0.107196644, 0.47563097, -0.33474165, 0.8063702, 0.33581454, 0.0033741796, -0.109669685, 0
525, 1298228524, 0.10782777, 0.47656918, -0.33551323, 0.80541074, 0.22848251, 0.016713098, -0.14104748, 0
526, 1298245191, 0.108530045, 0.47717375, -0.33671182, 0.80445766, 0.35750738, 0.07597784, -0.2674961, 0
527, 1298261858, 0.1091539, 0.47792748, -0.33766523, 0.8035258, 0.5040205, 0.06609663, -0.13791561, 0
528, 1298278525, 0.10935541, 0.4787073, -0.3381925, 0.8028121, 0.53572536, 0.022812486, 0.14657688, 0
529, 1298295192, 0.1096987, 0.47906905, -0.33872354, 0.8023253, 0.4993202, -0.012923889, 0.14544773, 0
530, 1298311859, 0.110241674, 0.47920856, -0.3392446, 0.8019474, 0.5130307, 0.05125258, 0.0970726, 0
531, 1298328526, 0.11025038, 0.47927603, -0.3393624, 0.80185604, 0.5469589, 0.16060731, -0.015755653, 0
532, 1298345193, 0.10982582, 0.4795684, -0.33903173, 0.8018795, 0.5680277, 0.24940221, -0.08165455, 0
533, 1298361860, 0.1088935, 0.48024425, -0.33778012, 0.8021302, 0.5457283, 0.22521526, 0.009205818, 0
534, 1298378527, 0.10796028, 0.48125094, -0.3361456, 0.8023397, 0.47207892, 0.018782353, 0.023493767, 0
535, 1298395194, 0.10768939, 0.48205274, -0.33462054, 0.80253214, 0.4002099, -0.13333188, 0.08245754, 0
536, 1298411861, 0.10778429, 0.4822693, -0.3332099, 0.80297625, 0.44713706, -0.18365444, 0.032052994, 0
537, 1298428528, 0.10792216, 0.4823482, -0.33232713, 0.803276, 0.48453194, -0.21808457, -0.055233955, 0
538, 1298445195, 0.107977055, 0.48215878, -0.33198658, 0.803523, 0.50469816, -0.10536546, -0.044386864, 0
539, 1298461862, 0.10795522, 0.481899, -0.331916, 0.80371106, 0.4303506, 0.08702019, -0.03040409, 0
540, 1298478529, 0.10802769, 0.48175442, -0.3315846, 0.80392474, 0.44532225, 0.30707315, -0.042487144, 0
541, 1298495196, 0.10809937, 0.48175374, -0.33078632, 0.80424416, 0.6070936, 0.40230185, -0.0044898987, 0
542, 1298511863, 0.10796262, 0.48209393, -0.32920069, 0.80470926, 0.67817986, 0.39210197, -0.014885902, 0
543, 1298528530, 0.10718441, 0.48289427, -0.3263464, 0.8054957, 0.5731534, 0.32752967, -0.06805515, 0
544, 1298545197, 0.10588596, 0.48354644, -0.32293704, 0.8066494, 0.4765647, 0.09085277, -0.17087078, 0
545, 1298561864, 0.104394704, 0.4842353, -0.31990585, 0.80763775, 0.38343143, -0.09055292, -0.20726109, 0
546, 1298578531, 0.10298438, 0.48481157, -0.31739974, 0.80846155, 0.294508, -0.2775646, -0.21704102, 0
547, 1298595198, 0.1022141, 0.48507723, -0.31593415, 0.80897367, 0.25783688, -0.3757261, -0.24770737, 0
548, 1298611865, 0.10180644, 0.4853368, -0.3155192, 0.80903137, 0.26567477, -0.38064152, -0.14500332, 0
549, 1298628532, 0.101521246, 0.48524666, -0.315997, 0.8089349, 0.32056794, -0.2700079, 0.11135292, 0
550, 1298645199, 0.101772696, 0.48455435, -0.3163373, 0.8091854, 0.44752547, 0.17249367, 0.16762829, 0
551, 1298661866, 0.101621866, 0.4840452, -0.3151309, 0.8099792, 0.52172375, 0.49592564, 0.19212246, 0
552, 1298678533, 0.1007746, 0.4838984, -0.31267264, 0.81112474, 0.5743386, 0.42052102, 0.15759468, 0
553, 1298695200, 0.09961672, 0.483975, -0.30980328, 0.8123223, 0.56251955, 0.2439754, -0.073596954, 0
554, 1298711867, 0.09859778, 0.4843107, -0.3074322, 0.8131467, 0.4772988, 0.026085498, -0.2564001, 0
555, 1298728534, 0.097883046, 0.48452324, -0.30615768, 0.81358725, 0.44365185, -0.07649745, -0.26592636, 0
556, 1298745201, 0.09770784, 0.48444128, -0.3058469, 0.81377405, 0.43196613, 0.005979335, -0.29550743, 0
557, 1298761868, 0.09788777, 0.4844221, -0.3060944, 0.8136707, 0.37753853, 0.107007496, -0.25351048, 0
558, 1298778535, 0.098179825, 0.48437324, -0.3060361, 0.8136866, 0.33641195, 0.18577857, -0.13504505, 0
559, 1298795202, 0.09844669, 0.48409936, -0.30545005, 0.8140375, 0.39433113, 0.060156055, -0.07271099, 0
560, 1298811869, 0.09870134, 0.48401335, -0.3051793, 0.8141592, 0.4518099, 0.012530667, -0.0257864, 0
561, 1298828536, 0.098759085, 0.48395637, -0.3046101, 0.81439936, 0.46708593, 0.14325744, 0.05301094, 0
562, 1298845203, 0.09864362, 0.4838919, -0.3037876, 0.8147587, 0.52138954, 0.17709741, 0.043341637, 0
563, 1298861870, 0.09846596, 0.48408538, -0.3031144, 0.81491596, 0.5037898, 0.14659251, -0.07361603, 0
564, 1298878537, 0.0982702, 0.48414743, -0.30215564, 0.8152588, 0.4716479, 0.09109857, -0.08924389, 0
565, 1298895204, 0.097924024, 0.4841955, -0.30087733, 0.8157446, 0.5102937, -0.029908491, -0.09209156, 0
566, 1298911871, 0.09765268, 0.484292, -0.29969606, 0.8161545, 0.5274396, -0.08717148, -0.14226532, 0
567, 1298928538, 0.09755016, 0.48442796, -0.29883197, 0.81640285, 0.40359673, -0.04595119, -0.10242939, 0
568, 1298945205, 0.097572245, 0.484434, -0.29834446, 0.8165749, 0.3413954, -0.010958505, -0.01832676, 0
569, 1298961872, 0.097861834, 0.48426637, -0.29840067, 0.81661904, 0.4015232, 0.0088758115, -0.0631752, 0
570, 1298978539, 0.09806174, 0.48429224, -0.29865232, 0.8164879, 0.44108006, 0.061603412, -0.13046646, 0
571, 1298995206, 0.09825926, 0.4843395, -0.2986504, 0.8164368, 0.48543897, 0.06060034, -0.17455482, 0
572, 1299011873, 0.09866214, 0.48440117, -0.29856423, 0.81638306, 0.51245964, 0.043419655, -0.1498518, 0
573, 1299028540, 0.09887419, 0.4844903, -0.2982115, 0.8164333, 0.49161005, 0.06368203, -0.07691002, 0
574, 1299045207, 0.098720156, 0.4843975, -0.2978659, 0.81663334, 0.5299665, 0.06763153, -0.021036148, 0
575, 1299061874, 0.098412976, 0.4843074, -0.29772776, 0.81677425, 0.51677316, 0.10717339, -0.042977333, 0
576, 1299078541, 0.09818212, 0.48433748, -0.2972352, 0.81696355, 0.47071326, 0.11187681, -0.048398018, 0
577, 1299095208, 0.09806578, 0.48448756, -0.29643813, 0.8171781, 0.41585273, 0.08904955, -0.019145966, 0
578, 1299111875, 0.098008044, 0.48447824, -0.29569983, 0.8174581, 0.40182236, 0.05633996, -0.09192371, 0
579, 1299128542, 0.097904295, 0.48452395, -0.29519597, 0.8176254, 0.4581728, -0.01290276, -0.08401489, 0
580, 1299145209, 0.09783217, 0.48457724, -0.2950599, 0.81765133, 0.4469088, -0.0067485548, -0.084243774, 0
581, 1299161876, 0.097907215, 0.48458308, -0.29497904, 0.81766826, 0.38722837, 0.09768287, -0.08853817, 0
582, 1299178543, 0.09788381, 0.48455802, -0.2945167, 0.81785256, 0.40983224, 0.09993312, -0.08879852, 0
583, 1299195210, 0.0978628, 0.48446032, -0.2941557, 0.818043, 0.46165484, 0.024637163, -0.100320816, 0
584, 1299211877, 0.097767696, 0.48445234, -0.29411224, 0.81807446, 0.43706685, 0.012203472, -0.15949535, 0
585, 1299228544, 0.09767674, 0.48438603, -0.29400706, 0.8181625, 0.42187354, 0.057085685, -0.07226753, 0
586, 1299245211, 0.097510375, 0.48420635, -0.29374933, 0.81838137, 0.41730615, 0.1362559, -0.05698681, 0
587, 1299261878, 0.09745172, 0.48403746, -0.2935463, 0.8185611, 0.42105937, 0.16421975, -0.06212902, 0
588, 1299278545, 0.097362556, 0.48401752, -0.2933498, 0.81865376, 0.44011948, 0.13533089, -0.06520367, 0
589, 1299295212, 0.09721119, 0.48409584, -0.2931023, 0.8187141, 0.41328165, 0.03330455, -0.08746433, 0
590, 1299311879, 0.09717204, 0.4841466, -0.29298994, 0.818729, 0.3956553, -0.022449417, -0.0889492, 0
591, 1299328546, 0.0971546, 0.4840961, -0.29280022, 0.81882876, 0.4139474, 0.0033269345, -0.09290314, 0
592, 1299345213, 0.09709237, 0.48390913, -0.29276577, 0.81895894, 0.4820538, 0.022844253, -0.05702877, 0
593, 1299361880, 0.097113065, 0.48376253, -0.29318073, 0.8188949, 0.45280775, 0.09706539, -0.10599899, 0
594, 1299378547, 0.09722043, 0.48367444, -0.2934584, 0.81883454, 0.48874718, 0.13233957, -0.08037186, 0
595, 1299395214, 0.09722761, 0.48370892, -0.29349613, 0.81879973, 0.5549897, 0.09767192, -0.042186737, 0
596, 1299411881, 0.097124524, 0.48381978, -0.29337668, 0.81878924, 0.5143127, 0.18379624, -0.08635998, 0
597, 1299428548, 0.096942, 0.4838076, -0.29302093, 0.8189455, 0.52200407, 0.11612512, -0.08903599, 0
598, 1299445215, 0.0966431, 0.48375466, -0.2925199, 0.8191912, 0.4784905, 0.08964606, -0.12630653, 0
599, 1299461882, 0.096333876, 0.4837324, -0.29206398, 0.8194035, 0.44435745, -0.096926674, -0.14346504, 0
600, 1299478549, 0.096320786, 0.48365763, -0.2918813, 0.8195141, 0.43921247, -0.032282088, -0.058861732, 0
601, 1299495216, 0.09644852, 0.48340955, -0.29180983, 0.81967103, 0.40400505, 0.09196141, -0.06340599, 0
602, 1299511883, 0.09650733, 0.48335025, -0.29184628, 0.8196861, 0.40165424, 0.18197413, -0.061351776, 0
603, 1299528550, 0.09643863, 0.48345208, -0.29181996, 0.81964356, 0.46471676, 0.1778468, -0.096385, 0
604, 1299545217, 0.0963285, 0.4836513, -0.29166257, 0.8195949, 0.4270922, 0.13019797, -0.09678745, 0
605, 1299561884, 0.09625689, 0.48377445, -0.29157114, 0.8195632, 0.46566424, 0.035989974, -0.019867897, 0
606, 1299578551, 0.09618123, 0.48376065, -0.29139784, 0.81964177, 0.4726966, 0.055478178, 5.197525E-4, 0
607, 1299595218, 0.09587953, 0.48375633, -0.291156, 0.81976575, 0.42193598, 0.048647203, -0.08344841, 0
608, 1299611885, 0.09569649, 0.48373514, -0.29112738, 0.81980985, 0.3875679, -0.010307747, -0.13428593, 0
609, 1299628552, 0.09573098, 0.48359466, -0.2912113, 0.81985885, 0.39836043, 0.0092407, -0.09693909, 0
610, 1299645219, 0.09586486, 0.48338372, -0.29142267, 0.81989235, 0.5040303, 0.01782812, -0.10946846, 0
611, 1299661886, 0.09602814, 0.48341858, -0.29162693, 0.8197801, 0.4832868, 0.15139055, -0.09092331, 0
612, 1299678553, 0.09608781, 0.4834806, -0.29159868, 0.8197467, 0.49225622, 0.17573388, 0.002995491, 0
613, 1299695220, 0.09612167, 0.48347616, -0.29169047, 0.8197126, 0.48953706, 0.12173784, 0.031481743, 0
614, 1299711887, 0.09601855, 0.48351255, -0.29170483, 0.81969815, 0.44499475, 0.072882965, -0.015814781, 0
